"rt","key_press","trial_type","trial_index","trial_index_global","time_elapsed","internal_chunk_id","view_history","stimulus","trial_id","correct","correct_response","direction","flanker","location","cue"
"2784","13","text","0","0","2940","0-0","","","","","","","","",""
"656","","instructions","0","1","4602","0-0","[{""page_index"":0,""viewing_time"":424},{""page_index"":1,""viewing_time"":231}]","","","","","","","",""
"-1","-1","single-stim","0","2","6743","0-0","","<div class = centerbox><p class = ANT_text>+</p></div>","fixation","","","","","",""
"-1","-1","single-stim","0","3","6848","0-0","","<div class = centerbox><div class = ANT_down><p class = ANT_text>*</p></div></div>","fixation","","","","","",""
"-1","-1","single-stim","0","4","7251","0-0","","<div class = centerbox><p class = ANT_text>+</p></div>","fixation","","","","","",""
"428","37","stim-feedback","0","5","7817","0-0","","<div class = centerbox><p class = ANT_text>+</p></div><div class = ANT_down><p class = ANT_text> &larr; &larr; &rarr; &larr; &larr; </p></div></div>","ANT_trial","false","39","right","incongruent","down","spatial"
"-1","-1","single-stim","0","6","10771","0-0","","<div class = centerbox><p class = ANT_text>+</p></div>","fixation","","","","","",""
"-1","-1","single-stim","0","7","11781","0-0","","<div class = centerbox><p class = ANT_text>+</p></div>","fixation","","","","","",""
"-1","-1","single-stim","0","8","11886","0-0","","<div class = centerbox><p class = ANT_text>+</p></div>","fixation","","","","","",""
"-1","-1","single-stim","0","9","12290","0-0","","<div class = centerbox><p class = ANT_text>+</p></div>","fixation","","","","","",""
"439","39","stim-feedback","0","10","12817","0-0","","<div class = centerbox><p class = ANT_text>+</p></div><div class = ANT_up><p class = ANT_text> &rarr; &rarr; &larr; &rarr; &rarr; </p></div></div>","ANT_trial","false","37","left","incongruent","up","nocue"
"-1","-1","single-stim","0","11","15876","0-0","","<div class = centerbox><p class = ANT_text>+</p></div>","fixation","","","","","",""
"-1","-1","single-stim","0","12","17244","0-0","","<div class = centerbox><p class = ANT_text>+</p></div>","fixation","","","","","",""
"-1","-1","single-stim","0","13","17347","0-0","","<div class = centerbox><p class = ANT_text>*</p></div>","fixation","","","","","",""
"-1","-1","single-stim","0","14","17751","0-0","","<div class = centerbox><p class = ANT_text>+</p></div>","fixation","","","","","",""
"417","37","stim-feedback","0","15","18304","0-0","","<div class = centerbox><p class = ANT_text>+</p></div><div class = ANT_down><p class = ANT_text> &larr; &larr; &larr; &larr; &larr; </p></div></div>","ANT_trial","true","37","left","congruent","down","center"
"-1","-1","single-stim","0","16","21032","0-0","","<div class = centerbox><p class = ANT_text>+</p></div>","fixation","","","","","",""
"-1","-1","single-stim","0","17","22363","0-0","","<div class = centerbox><p class = ANT_text>+</p></div>","fixation","","","","","",""
"-1","-1","single-stim","0","18","22465","0-0","","<div class = centerbox><p class = ANT_text>+</p></div>","fixation","","","","","",""
"-1","-1","single-stim","0","19","22870","0-0","","<div class = centerbox><p class = ANT_text>+</p></div>","fixation","","","","","",""
"474","39","stim-feedback","0","20","23448","0-0","","<div class = centerbox><p class = ANT_text>+</p></div><div class = ANT_up><p class = ANT_text> &mdash; &mdash; &rarr; &mdash; &mdash; </p></div></div>","ANT_trial","true","39","right","neutral","up","nocue"
"-1","-1","single-stim","0","21","26159","0-0","","<div class = centerbox><p class = ANT_text>+</p></div>","fixation","","","","","",""
"-1","-1","single-stim","0","22","26706","0-0","","<div class = centerbox><p class = ANT_text>+</p></div>","fixation","","","","","",""
"-1","-1","single-stim","0","23","26808","0-0","","<div class = centerbox><p class = ANT_text>*</p></div>","fixation","","","","","",""
"-1","-1","single-stim","0","24","27212","0-0","","<div class = centerbox><p class = ANT_text>+</p></div>","fixation","","","","","",""
"668","39","stim-feedback","0","25","27952","0-0","","<div class = centerbox><p class = ANT_text>+</p></div><div class = ANT_down><p class = ANT_text> &rarr; &rarr; &rarr; &rarr; &rarr; </p></div></div>","ANT_trial","true","39","right","congruent","down","center"
"-1","-1","single-stim","0","26","31253","0-0","","<div class = centerbox><p class = ANT_text>+</p></div>","fixation","","","","","",""
"-1","-1","single-stim","0","27","32403","0-0","","<div class = centerbox><p class = ANT_text>+</p></div>","fixation","","","","","",""
"-1","-1","single-stim","0","28","32505","0-0","","<div class = centerbox><p class = ANT_text>+</p></div>","fixation","","","","","",""
"-1","-1","single-stim","0","29","32910","0-0","","<div class = centerbox><p class = ANT_text>+</p></div>","fixation","","","","","",""
"999","-1","stim-feedback","0","30","34612","0-0","","<div class = centerbox><p class = ANT_text>+</p></div><div class = ANT_down><p class = ANT_text> &rarr; &rarr; &rarr; &rarr; &rarr; </p></div></div>","ANT_trial","NAN","39","right","congruent","down","nocue"
"-1","-1","single-stim","0","31","36974","0-0","","<div class = centerbox><p class = ANT_text>+</p></div>","fixation","","","","","",""
"-1","-1","single-stim","0","32","37497","0-0","","<div class = centerbox><p class = ANT_text>+</p></div>","fixation","","","","","",""
"-1","-1","single-stim","0","33","37600","0-0","","<div class = centerbox><p class = ANT_text>+</p></div><div class = ANT_down><p class = ANT_text>*</p></div><div class = ANT_up><p class = ANT_text>*</p></div></div>","fixation","","","","","",""
"-1","-1","single-stim","0","34","38004","0-0","","<div class = centerbox><p class = ANT_text>+</p></div>","fixation","","","","","",""
"501","37","stim-feedback","0","35","38624","0-0","","<div class = centerbox><p class = ANT_text>+</p></div><div class = ANT_down><p class = ANT_text> &mdash; &mdash; &larr; &mdash; &mdash;</p></div></div>","ANT_trial","true","37","left","neutral","down","double"
"-1","-1","single-stim","0","36","42112","0-0","","<div class = centerbox><p class = ANT_text>+</p></div>","fixation","","","","","",""
"-1","-1","single-stim","0","37","42567","0-0","","<div class = centerbox><p class = ANT_text>+</p></div>","fixation","","","","","",""
"-1","-1","single-stim","0","38","42670","0-0","","<div class = centerbox><p class = ANT_text>+</p></div><div class = ANT_down><p class = ANT_text>*</p></div><div class = ANT_up><p class = ANT_text>*</p></div></div>","fixation","","","","","",""
"-1","-1","single-stim","0","39","43071","0-0","","<div class = centerbox><p class = ANT_text>+</p></div>","fixation","","","","","",""
"999","-1","stim-feedback","0","40","44776","0-0","","<div class = centerbox><p class = ANT_text>+</p></div><div class = ANT_down><p class = ANT_text> &rarr; &rarr; &rarr; &rarr; &rarr; </p></div></div>","ANT_trial","NAN","39","right","congruent","down","double"
"-1","-1","single-stim","0","41","47837","0-0","","<div class = centerbox><p class = ANT_text>+</p></div>","fixation","","","","","",""
"-1","-1","single-stim","0","42","49107","0-0","","<div class = centerbox><p class = ANT_text>+</p></div>","fixation","","","","","",""
"-1","-1","single-stim","0","43","49213","0-0","","<div class = centerbox><p class = ANT_text>*</p></div>","fixation","","","","","",""
"-1","-1","single-stim","0","44","49618","0-0","","<div class = centerbox><p class = ANT_text>+</p></div>","fixation","","","","","",""
"999","-1","stim-feedback","0","45","51320","0-0","","<div class = centerbox><p class = ANT_text>+</p></div><div class = ANT_down><p class = ANT_text> &mdash; &mdash; &larr; &mdash; &mdash;</p></div></div>","ANT_trial","NAN","37","left","neutral","down","center"
"-1","-1","single-stim","0","46","53566","0-0","","<div class = centerbox><p class = ANT_text>+</p></div>","fixation","","","","","",""
"-1","-1","single-stim","0","47","54519","0-0","","<div class = centerbox><p class = ANT_text>+</p></div>","fixation","","","","","",""
"-1","-1","single-stim","0","48","54622","0-0","","<div class = centerbox><p class = ANT_text>*</p></div>","fixation","","","","","",""
"-1","-1","single-stim","0","49","55026","0-0","","<div class = centerbox><p class = ANT_text>+</p></div>","fixation","","","","","",""
"999","-1","stim-feedback","0","50","56731","0-0","","<div class = centerbox><p class = ANT_text>+</p></div><div class = ANT_down><p class = ANT_text> &rarr; &rarr; &larr; &rarr; &rarr; </p></div></div>","ANT_trial","NAN","37","left","incongruent","down","center"
"-1","-1","single-stim","0","51","59290","0-0","","<div class = centerbox><p class = ANT_text>+</p></div>","fixation","","","","","",""
"-1","-1","single-stim","0","52","59933","0-0","","<div class = centerbox><p class = ANT_text>+</p></div>","fixation","","","","","",""
"-1","-1","single-stim","0","53","60038","0-0","","<div class = centerbox><p class = ANT_text>+</p></div>","fixation","","","","","",""
"-1","-1","single-stim","0","54","60444","0-0","","<div class = centerbox><p class = ANT_text>+</p></div>","fixation","","","","","",""
"999","-1","stim-feedback","0","55","62147","0-0","","<div class = centerbox><p class = ANT_text>+</p></div><div class = ANT_up><p class = ANT_text> &rarr; &rarr; &rarr; &rarr; &rarr; </p></div></div>","ANT_trial","NAN","39","right","congruent","up","nocue"
"-1","-1","single-stim","0","56","65020","0-0","","<div class = centerbox><p class = ANT_text>+</p></div>","fixation","","","","","",""
"-1","-1","single-stim","0","57","66400","0-0","","<div class = centerbox><p class = ANT_text>+</p></div>","fixation","","","","","",""
"-1","-1","single-stim","0","58","66502","0-0","","<div class = centerbox><div class = ANT_up><p class = ANT_text>*</p></div></div>","fixation","","","","","",""
"-1","-1","single-stim","0","59","66904","0-0","","<div class = centerbox><p class = ANT_text>+</p></div>","fixation","","","","","",""
"999","-1","stim-feedback","0","60","68608","0-0","","<div class = centerbox><p class = ANT_text>+</p></div><div class = ANT_up><p class = ANT_text> &rarr; &rarr; &larr; &rarr; &rarr; </p></div></div>","ANT_trial","NAN","37","left","incongruent","up","spatial"
"-1","-1","single-stim","0","61","70744","0-0","","<div class = centerbox><p class = ANT_text>+</p></div>","fixation","","","","","",""
"-1","-1","single-stim","0","62","71642","0-0","","<div class = centerbox><p class = ANT_text>+</p></div>","fixation","","","","","",""
"-1","-1","single-stim","0","63","71744","0-0","","<div class = centerbox><p class = ANT_text>+</p></div>","fixation","","","","","",""
"-1","-1","single-stim","0","64","72146","0-0","","<div class = centerbox><p class = ANT_text>+</p></div>","fixation","","","","","",""
"999","-1","stim-feedback","0","65","73851","0-0","","<div class = centerbox><p class = ANT_text>+</p></div><div class = ANT_down><p class = ANT_text> &mdash; &mdash; &rarr; &mdash; &mdash; </p></div></div>","ANT_trial","NAN","39","right","neutral","down","nocue"
"-1","-1","single-stim","0","66","76466","0-0","","<div class = centerbox><p class = ANT_text>+</p></div>","fixation","","","","","",""
"-1","-1","single-stim","0","67","77540","0-0","","<div class = centerbox><p class = ANT_text>+</p></div>","fixation","","","","","",""
"-1","-1","single-stim","0","68","77642","0-0","","<div class = centerbox><div class = ANT_up><p class = ANT_text>*</p></div></div>","fixation","","","","","",""
"-1","-1","single-stim","0","69","78044","0-0","","<div class = centerbox><p class = ANT_text>+</p></div>","fixation","","","","","",""
"999","-1","stim-feedback","0","70","79746","0-0","","<div class = centerbox><p class = ANT_text>+</p></div><div class = ANT_up><p class = ANT_text> &larr; &larr; &rarr; &larr; &larr; </p></div></div>","ANT_trial","NAN","39","right","incongruent","up","spatial"
"-1","-1","single-stim","0","71","82189","0-0","","<div class = centerbox><p class = ANT_text>+</p></div>","fixation","","","","","",""
"-1","-1","single-stim","0","72","83400","0-0","","<div class = centerbox><p class = ANT_text>+</p></div>","fixation","","","","","",""
"-1","-1","single-stim","0","73","83501","0-0","","<div class = centerbox><p class = ANT_text>+</p></div><div class = ANT_down><p class = ANT_text>*</p></div><div class = ANT_up><p class = ANT_text>*</p></div></div>","fixation","","","","","",""
"-1","-1","single-stim","0","74","83904","0-0","","<div class = centerbox><p class = ANT_text>+</p></div>","fixation","","","","","",""
"999","-1","stim-feedback","0","75","85609","0-0","","<div class = centerbox><p class = ANT_text>+</p></div><div class = ANT_up><p class = ANT_text> &larr; &larr; &rarr; &larr; &larr; </p></div></div>","ANT_trial","NAN","39","right","incongruent","up","double"
"-1","-1","single-stim","0","76","87917","0-0","","<div class = centerbox><p class = ANT_text>+</p></div>","fixation","","","","","",""
"-1","-1","single-stim","0","77","88975","0-0","","<div class = centerbox><p class = ANT_text>+</p></div>","fixation","","","","","",""
"-1","-1","single-stim","0","78","89077","0-0","","<div class = centerbox><p class = ANT_text>*</p></div>","fixation","","","","","",""
"-1","-1","single-stim","0","79","89480","0-0","","<div class = centerbox><p class = ANT_text>+</p></div>","fixation","","","","","",""
"999","-1","stim-feedback","0","80","91185","0-0","","<div class = centerbox><p class = ANT_text>+</p></div><div class = ANT_down><p class = ANT_text> &larr; &larr; &rarr; &larr; &larr; </p></div></div>","ANT_trial","NAN","39","right","incongruent","down","center"
"-1","-1","single-stim","0","81","93643","0-0","","<div class = centerbox><p class = ANT_text>+</p></div>","fixation","","","","","",""
"-1","-1","single-stim","0","82","94353","0-0","","<div class = centerbox><p class = ANT_text>+</p></div>","fixation","","","","","",""
"-1","-1","single-stim","0","83","94455","0-0","","<div class = centerbox><div class = ANT_down><p class = ANT_text>*</p></div></div>","fixation","","","","","",""
"-1","-1","single-stim","0","84","94860","0-0","","<div class = centerbox><p class = ANT_text>+</p></div>","fixation","","","","","",""
"999","-1","stim-feedback","0","85","96564","0-0","","<div class = centerbox><p class = ANT_text>+</p></div><div class = ANT_down><p class = ANT_text> &mdash; &mdash; &rarr; &mdash; &mdash; </p></div></div>","ANT_trial","NAN","39","right","neutral","down","spatial"
"-1","-1","single-stim","0","86","99365","0-0","","<div class = centerbox><p class = ANT_text>+</p></div>","fixation","","","","","",""
"-1","-1","single-stim","0","87","100744","0-0","","<div class = centerbox><p class = ANT_text>+</p></div>","fixation","","","","","",""
"-1","-1","single-stim","0","88","100847","0-0","","<div class = centerbox><p class = ANT_text>*</p></div>","fixation","","","","","",""
"-1","-1","single-stim","0","89","101253","0-0","","<div class = centerbox><p class = ANT_text>+</p></div>","fixation","","","","","",""
"999","-1","stim-feedback","0","90","102959","0-0","","<div class = centerbox><p class = ANT_text>+</p></div><div class = ANT_down><p class = ANT_text> &mdash; &mdash; &rarr; &mdash; &mdash; </p></div></div>","ANT_trial","NAN","39","right","neutral","down","center"
"-1","-1","single-stim","0","91","105096","0-0","","<div class = centerbox><p class = ANT_text>+</p></div>","fixation","","","","","",""
"-1","-1","single-stim","0","92","106500","0-0","","<div class = centerbox><p class = ANT_text>+</p></div>","fixation","","","","","",""
"-1","-1","single-stim","0","93","106602","0-0","","<div class = centerbox><p class = ANT_text>+</p></div><div class = ANT_down><p class = ANT_text>*</p></div><div class = ANT_up><p class = ANT_text>*</p></div></div>","fixation","","","","","",""
"-1","-1","single-stim","0","94","107005","0-0","","<div class = centerbox><p class = ANT_text>+</p></div>","fixation","","","","","",""
"999","-1","stim-feedback","0","95","108713","0-0","","<div class = centerbox><p class = ANT_text>+</p></div><div class = ANT_down><p class = ANT_text> &rarr; &rarr; &larr; &rarr; &rarr; </p></div></div>","ANT_trial","NAN","37","left","incongruent","down","double"
"-1","-1","single-stim","0","96","110827","0-0","","<div class = centerbox><p class = ANT_text>+</p></div>","fixation","","","","","",""
"-1","-1","single-stim","0","97","111934","0-0","","<div class = centerbox><p class = ANT_text>+</p></div>","fixation","","","","","",""
"-1","-1","single-stim","0","98","112036","0-0","","<div class = centerbox><div class = ANT_down><p class = ANT_text>*</p></div></div>","fixation","","","","","",""
"-1","-1","single-stim","0","99","112439","0-0","","<div class = centerbox><p class = ANT_text>+</p></div>","fixation","","","","","",""
"999","-1","stim-feedback","0","100","114143","0-0","","<div class = centerbox><p class = ANT_text>+</p></div><div class = ANT_down><p class = ANT_text> &larr; &larr; &larr; &larr; &larr; </p></div></div>","ANT_trial","NAN","37","left","congruent","down","spatial"
"-1","-1","single-stim","0","101","116556","0-0","","<div class = centerbox><p class = ANT_text>+</p></div>","fixation","","","","","",""
"-1","-1","single-stim","0","102","118075","0-0","","<div class = centerbox><p class = ANT_text>+</p></div>","fixation","","","","","",""
"-1","-1","single-stim","0","103","118177","0-0","","<div class = centerbox><p class = ANT_text>+</p></div>","fixation","","","","","",""
"-1","-1","single-stim","0","104","118583","0-0","","<div class = centerbox><p class = ANT_text>+</p></div>","fixation","","","","","",""
"999","-1","stim-feedback","0","105","120284","0-0","","<div class = centerbox><p class = ANT_text>+</p></div><div class = ANT_down><p class = ANT_text> &larr; &larr; &rarr; &larr; &larr; </p></div></div>","ANT_trial","NAN","39","right","incongruent","down","nocue"
"-1","-1","single-stim","0","106","122278","0-0","","<div class = centerbox><p class = ANT_text>+</p></div>","fixation","","","","","",""
"-1","-1","single-stim","0","107","123836","0-0","","<div class = centerbox><p class = ANT_text>+</p></div>","fixation","","","","","",""
"-1","-1","single-stim","0","108","123942","0-0","","<div class = centerbox><p class = ANT_text>+</p></div><div class = ANT_down><p class = ANT_text>*</p></div><div class = ANT_up><p class = ANT_text>*</p></div></div>","fixation","","","","","",""
"-1","-1","single-stim","0","109","124344","0-0","","<div class = centerbox><p class = ANT_text>+</p></div>","fixation","","","","","",""
"999","-1","stim-feedback","0","110","126046","0-0","","<div class = centerbox><p class = ANT_text>+</p></div><div class = ANT_up><p class = ANT_text> &rarr; &rarr; &rarr; &rarr; &rarr; </p></div></div>","ANT_trial","NAN","39","right","congruent","up","double"
"-1","-1","single-stim","0","111","128007","0-0","","<div class = centerbox><p class = ANT_text>+</p></div>","fixation","","","","","",""
"-1","-1","single-stim","0","112","129388","0-0","","<div class = centerbox><p class = ANT_text>+</p></div>","fixation","","","","","",""
"-1","-1","single-stim","0","113","129490","0-0","","<div class = centerbox><div class = ANT_down><p class = ANT_text>*</p></div></div>","fixation","","","","","",""
"-1","-1","single-stim","0","114","129894","0-0","","<div class = centerbox><p class = ANT_text>+</p></div>","fixation","","","","","",""
"999","-1","stim-feedback","0","115","131597","0-0","","<div class = centerbox><p class = ANT_text>+</p></div><div class = ANT_down><p class = ANT_text> &rarr; &rarr; &rarr; &rarr; &rarr; </p></div></div>","ANT_trial","NAN","39","right","congruent","down","spatial"
"-1","-1","single-stim","0","116","133735","0-0","","<div class = centerbox><p class = ANT_text>+</p></div>","fixation","","","","","",""
"-1","-1","single-stim","0","117","134369","0-0","","<div class = centerbox><p class = ANT_text>+</p></div>","fixation","","","","","",""
"-1","-1","single-stim","0","118","134471","0-0","","<div class = centerbox><p class = ANT_text>*</p></div>","fixation","","","","","",""
"-1","-1","single-stim","0","119","134875","0-0","","<div class = centerbox><p class = ANT_text>+</p></div>","fixation","","","","","",""
"999","-1","stim-feedback","0","120","136864","0-0","","<div class = centerbox><p class = ANT_text>+</p></div><div class = ANT_up><p class = ANT_text> &mdash; &mdash; &rarr; &mdash; &mdash; </p></div></div>","ANT_trial","NAN","39","right","neutral","up","center"
"-1","-1","single-stim","0","121","139861","0-0","","<div class = centerbox><p class = ANT_text>+</p></div>","fixation","","","","","",""
"-1","-1","single-stim","0","122","141864","0-0","","<div class = centerbox><p class = ANT_text>+</p></div>","fixation","","","","","",""
"-1","-1","single-stim","0","123","142861","0-0","","<div class = centerbox><p class = ANT_text>+</p></div><div class = ANT_down><p class = ANT_text>*</p></div><div class = ANT_up><p class = ANT_text>*</p></div></div>","fixation","","","","","",""
"-1","-1","single-stim","0","124","143863","0-0","","<div class = centerbox><p class = ANT_text>+</p></div>","fixation","","","","","",""
"999","-1","stim-feedback","0","125","145863","0-0","","<div class = centerbox><p class = ANT_text>+</p></div><div class = ANT_down><p class = ANT_text> &mdash; &mdash; &rarr; &mdash; &mdash; </p></div></div>","ANT_trial","NAN","39","right","neutral","down","double"
"-1","-1","single-stim","0","126","148859","0-0","","<div class = centerbox><p class = ANT_text>+</p></div>","fixation","","","","","",""
"-1","-1","single-stim","0","127","150862","0-0","","<div class = centerbox><p class = ANT_text>+</p></div>","fixation","","","","","",""
"-1","-1","single-stim","0","128","151862","0-0","","<div class = centerbox><p class = ANT_text>+</p></div>","fixation","","","","","",""
"-1","-1","single-stim","0","129","152861","0-0","","<div class = centerbox><p class = ANT_text>+</p></div>","fixation","","","","","",""
"999","-1","stim-feedback","0","130","154859","0-0","","<div class = centerbox><p class = ANT_text>+</p></div><div class = ANT_up><p class = ANT_text> &mdash; &mdash; &larr; &mdash; &mdash;</p></div></div>","ANT_trial","NAN","37","left","neutral","up","nocue"
"-1","-1","single-stim","0","131","157863","0-0","","<div class = centerbox><p class = ANT_text>+</p></div>","fixation","","","","","",""
"-1","-1","single-stim","0","132","158863","0-0","","<div class = centerbox><p class = ANT_text>+</p></div>","fixation","","","","","",""
"-1","-1","single-stim","0","133","159859","0-0","","<div class = centerbox><p class = ANT_text>+</p></div><div class = ANT_down><p class = ANT_text>*</p></div><div class = ANT_up><p class = ANT_text>*</p></div></div>","fixation","","","","","",""
"-1","-1","single-stim","0","134","160861","0-0","","<div class = centerbox><p class = ANT_text>+</p></div>","fixation","","","","","",""
"999","-1","stim-feedback","0","135","162860","0-0","","<div class = centerbox><p class = ANT_text>+</p></div><div class = ANT_up><p class = ANT_text> &mdash; &mdash; &rarr; &mdash; &mdash; </p></div></div>","ANT_trial","NAN","39","right","neutral","up","double"
"-1","-1","single-stim","0","136","165862","0-0","","<div class = centerbox><p class = ANT_text>+</p></div>","fixation","","","","","",""
"-1","-1","single-stim","0","137","166860","0-0","","<div class = centerbox><p class = ANT_text>+</p></div>","fixation","","","","","",""
"-1","-1","single-stim","0","138","167860","0-0","","<div class = centerbox><p class = ANT_text>*</p></div>","fixation","","","","","",""
"-1","-1","single-stim","0","139","168863","0-0","","<div class = centerbox><p class = ANT_text>+</p></div>","fixation","","","","","",""
"999","-1","stim-feedback","0","140","170864","0-0","","<div class = centerbox><p class = ANT_text>+</p></div><div class = ANT_up><p class = ANT_text> &mdash; &mdash; &larr; &mdash; &mdash;</p></div></div>","ANT_trial","NAN","37","left","neutral","up","center"
"-1","-1","single-stim","0","141","174863","0-0","","<div class = centerbox><p class = ANT_text>+</p></div>","fixation","","","","","",""
"-1","-1","single-stim","0","142","176859","0-0","","<div class = centerbox><p class = ANT_text>+</p></div>","fixation","","","","","",""
"-1","-1","single-stim","0","143","177861","0-0","","<div class = centerbox><p class = ANT_text>+</p></div><div class = ANT_down><p class = ANT_text>*</p></div><div class = ANT_up><p class = ANT_text>*</p></div></div>","fixation","","","","","",""
"-1","-1","single-stim","0","144","178861","0-0","","<div class = centerbox><p class = ANT_text>+</p></div>","fixation","","","","","",""
"999","-1","stim-feedback","0","145","180860","0-0","","<div class = centerbox><p class = ANT_text>+</p></div><div class = ANT_up><p class = ANT_text> &mdash; &mdash; &larr; &mdash; &mdash;</p></div></div>","ANT_trial","NAN","37","left","neutral","up","double"
"-1","-1","single-stim","0","146","182919","0-0","","<div class = centerbox><p class = ANT_text>+</p></div>","fixation","","","","","",""
"-1","-1","single-stim","0","147","184033","0-0","","<div class = centerbox><p class = ANT_text>+</p></div>","fixation","","","","","",""
"-1","-1","single-stim","0","148","184138","0-0","","<div class = centerbox><div class = ANT_up><p class = ANT_text>*</p></div></div>","fixation","","","","","",""
"-1","-1","single-stim","0","149","184542","0-0","","<div class = centerbox><p class = ANT_text>+</p></div>","fixation","","","","","",""
"999","-1","stim-feedback","0","150","186246","0-0","","<div class = centerbox><p class = ANT_text>+</p></div><div class = ANT_up><p class = ANT_text> &mdash; &mdash; &rarr; &mdash; &mdash; </p></div></div>","ANT_trial","NAN","39","right","neutral","up","spatial"
"-1","-1","single-stim","0","151","188652","0-0","","<div class = centerbox><p class = ANT_text>+</p></div>","fixation","","","","","",""
"-1","-1","single-stim","0","152","190045","0-0","","<div class = centerbox><p class = ANT_text>+</p></div>","fixation","","","","","",""
"-1","-1","single-stim","0","153","190147","0-0","","<div class = centerbox><p class = ANT_text>+</p></div><div class = ANT_down><p class = ANT_text>*</p></div><div class = ANT_up><p class = ANT_text>*</p></div></div>","fixation","","","","","",""
"-1","-1","single-stim","0","154","190550","0-0","","<div class = centerbox><p class = ANT_text>+</p></div>","fixation","","","","","",""
"999","-1","stim-feedback","0","155","192253","0-0","","<div class = centerbox><p class = ANT_text>+</p></div><div class = ANT_up><p class = ANT_text> &rarr; &rarr; &larr; &rarr; &rarr; </p></div></div>","ANT_trial","NAN","37","left","incongruent","up","double"
"-1","-1","single-stim","0","156","194379","0-0","","<div class = centerbox><p class = ANT_text>+</p></div>","fixation","","","","","",""
"-1","-1","single-stim","0","157","194905","0-0","","<div class = centerbox><p class = ANT_text>+</p></div>","fixation","","","","","",""
"-1","-1","single-stim","0","158","195007","0-0","","<div class = centerbox><div class = ANT_up><p class = ANT_text>*</p></div></div>","fixation","","","","","",""
"-1","-1","single-stim","0","159","195411","0-0","","<div class = centerbox><p class = ANT_text>+</p></div>","fixation","","","","","",""
"999","-1","stim-feedback","0","160","197116","0-0","","<div class = centerbox><p class = ANT_text>+</p></div><div class = ANT_up><p class = ANT_text> &larr; &larr; &larr; &larr; &larr; </p></div></div>","ANT_trial","NAN","37","left","congruent","up","spatial"
"-1","-1","single-stim","0","161","200110","0-0","","<div class = centerbox><p class = ANT_text>+</p></div>","fixation","","","","","",""
"-1","-1","single-stim","0","162","201358","0-0","","<div class = centerbox><p class = ANT_text>+</p></div>","fixation","","","","","",""
"-1","-1","single-stim","0","163","201459","0-0","","<div class = centerbox><p class = ANT_text>+</p></div><div class = ANT_down><p class = ANT_text>*</p></div><div class = ANT_up><p class = ANT_text>*</p></div></div>","fixation","","","","","",""
"-1","-1","single-stim","0","164","201864","0-0","","<div class = centerbox><p class = ANT_text>+</p></div>","fixation","","","","","",""
"999","-1","stim-feedback","0","165","203566","0-0","","<div class = centerbox><p class = ANT_text>+</p></div><div class = ANT_down><p class = ANT_text> &larr; &larr; &rarr; &larr; &larr; </p></div></div>","ANT_trial","NAN","39","right","incongruent","down","double"
"-1","-1","single-stim","0","166","205836","0-0","","<div class = centerbox><p class = ANT_text>+</p></div>","fixation","","","","","",""
"-1","-1","single-stim","0","167","206430","0-0","","<div class = centerbox><p class = ANT_text>+</p></div>","fixation","","","","","",""
"-1","-1","single-stim","0","168","206536","0-0","","<div class = centerbox><p class = ANT_text>*</p></div>","fixation","","","","","",""
"-1","-1","single-stim","0","169","206941","0-0","","<div class = centerbox><p class = ANT_text>+</p></div>","fixation","","","","","",""
"999","-1","stim-feedback","0","170","208646","0-0","","<div class = centerbox><p class = ANT_text>+</p></div><div class = ANT_up><p class = ANT_text> &rarr; &rarr; &rarr; &rarr; &rarr; </p></div></div>","ANT_trial","NAN","39","right","congruent","up","center"
"-1","-1","single-stim","0","171","211570","0-0","","<div class = centerbox><p class = ANT_text>+</p></div>","fixation","","","","","",""
"-1","-1","single-stim","0","172","212003","0-0","","<div class = centerbox><p class = ANT_text>+</p></div>","fixation","","","","","",""
"-1","-1","single-stim","0","173","212106","0-0","","<div class = centerbox><p class = ANT_text>+</p></div>","fixation","","","","","",""
"-1","-1","single-stim","0","174","212507","0-0","","<div class = centerbox><p class = ANT_text>+</p></div>","fixation","","","","","",""
"999","-1","stim-feedback","0","175","214211","0-0","","<div class = centerbox><p class = ANT_text>+</p></div><div class = ANT_down><p class = ANT_text> &larr; &larr; &larr; &larr; &larr; </p></div></div>","ANT_trial","NAN","37","left","congruent","down","nocue"
"-1","-1","single-stim","0","176","217297","0-0","","<div class = centerbox><p class = ANT_text>+</p></div>","fixation","","","","","",""
"-1","-1","single-stim","0","177","218725","0-0","","<div class = centerbox><p class = ANT_text>+</p></div>","fixation","","","","","",""
"-1","-1","single-stim","0","178","218827","0-0","","<div class = centerbox><div class = ANT_up><p class = ANT_text>*</p></div></div>","fixation","","","","","",""
"-1","-1","single-stim","0","179","219232","0-0","","<div class = centerbox><p class = ANT_text>+</p></div>","fixation","","","","","",""
"999","-1","stim-feedback","0","180","220934","0-0","","<div class = centerbox><p class = ANT_text>+</p></div><div class = ANT_up><p class = ANT_text> &rarr; &rarr; &rarr; &rarr; &rarr; </p></div></div>","ANT_trial","NAN","39","right","congruent","up","spatial"
"-1","-1","single-stim","0","181","223028","0-0","","<div class = centerbox><p class = ANT_text>+</p></div>","fixation","","","","","",""
"-1","-1","single-stim","0","182","224860","0-0","","<div class = centerbox><p class = ANT_text>+</p></div>","fixation","","","","","",""
"-1","-1","single-stim","0","183","225861","0-0","","<div class = centerbox><div class = ANT_up><p class = ANT_text>*</p></div></div>","fixation","","","","","",""
"-1","-1","single-stim","0","184","226860","0-0","","<div class = centerbox><p class = ANT_text>+</p></div>","fixation","","","","","",""
"999","-1","stim-feedback","0","185","228862","0-0","","<div class = centerbox><p class = ANT_text>+</p></div><div class = ANT_up><p class = ANT_text> &mdash; &mdash; &larr; &mdash; &mdash;</p></div></div>","ANT_trial","NAN","37","left","neutral","up","spatial"
"-1","-1","single-stim","0","186","232862","0-0","","<div class = centerbox><p class = ANT_text>+</p></div>","fixation","","","","","",""
"-1","-1","single-stim","0","187","233861","0-0","","<div class = centerbox><p class = ANT_text>+</p></div>","fixation","","","","","",""
"-1","-1","single-stim","0","188","234859","0-0","","<div class = centerbox><p class = ANT_text>+</p></div><div class = ANT_down><p class = ANT_text>*</p></div><div class = ANT_up><p class = ANT_text>*</p></div></div>","fixation","","","","","",""
"-1","-1","single-stim","0","189","235862","0-0","","<div class = centerbox><p class = ANT_text>+</p></div>","fixation","","","","","",""
"999","-1","stim-feedback","0","190","237858","0-0","","<div class = centerbox><p class = ANT_text>+</p></div><div class = ANT_down><p class = ANT_text> &larr; &larr; &larr; &larr; &larr; </p></div></div>","ANT_trial","NAN","37","left","congruent","down","double"
"-1","-1","single-stim","0","191","240862","0-0","","<div class = centerbox><p class = ANT_text>+</p></div>","fixation","","","","","",""
"-1","-1","single-stim","0","192","241862","0-0","","<div class = centerbox><p class = ANT_text>+</p></div>","fixation","","","","","",""
"-1","-1","single-stim","0","193","242858","0-0","","<div class = centerbox><p class = ANT_text>*</p></div>","fixation","","","","","",""
"-1","-1","single-stim","0","194","243862","0-0","","<div class = centerbox><p class = ANT_text>+</p></div>","fixation","","","","","",""
"999","-1","stim-feedback","0","195","245859","0-0","","<div class = centerbox><p class = ANT_text>+</p></div><div class = ANT_up><p class = ANT_text> &larr; &larr; &larr; &larr; &larr; </p></div></div>","ANT_trial","NAN","37","left","congruent","up","center"
"-1","-1","single-stim","0","196","248860","0-0","","<div class = centerbox><p class = ANT_text>+</p></div>","fixation","","","","","",""
"-1","-1","single-stim","0","197","249859","0-0","","<div class = centerbox><p class = ANT_text>+</p></div>","fixation","","","","","",""
"-1","-1","single-stim","0","198","250859","0-0","","<div class = centerbox><p class = ANT_text>*</p></div>","fixation","","","","","",""
"-1","-1","single-stim","0","199","251859","0-0","","<div class = centerbox><p class = ANT_text>+</p></div>","fixation","","","","","",""
"999","-1","stim-feedback","0","200","253860","0-0","","<div class = centerbox><p class = ANT_text>+</p></div><div class = ANT_up><p class = ANT_text> &rarr; &rarr; &larr; &rarr; &rarr; </p></div></div>","ANT_trial","NAN","37","left","incongruent","up","center"
"-1","-1","single-stim","0","201","256861","0-0","","<div class = centerbox><p class = ANT_text>+</p></div>","fixation","","","","","",""
"-1","-1","single-stim","0","202","257862","0-0","","<div class = centerbox><p class = ANT_text>+</p></div>","fixation","","","","","",""
"-1","-1","single-stim","0","203","258859","0-0","","<div class = centerbox><p class = ANT_text>+</p></div>","fixation","","","","","",""
"-1","-1","single-stim","0","204","259862","0-0","","<div class = centerbox><p class = ANT_text>+</p></div>","fixation","","","","","",""
"999","-1","stim-feedback","0","205","261863","0-0","","<div class = centerbox><p class = ANT_text>+</p></div><div class = ANT_up><p class = ANT_text> &larr; &larr; &larr; &larr; &larr; </p></div></div>","ANT_trial","NAN","37","left","congruent","up","nocue"
"-1","-1","single-stim","0","206","265863","0-0","","<div class = centerbox><p class = ANT_text>+</p></div>","fixation","","","","","",""
"-1","-1","single-stim","0","207","266859","0-0","","<div class = centerbox><p class = ANT_text>+</p></div>","fixation","","","","","",""
"-1","-1","single-stim","0","208","267860","0-0","","<div class = centerbox><p class = ANT_text>*</p></div>","fixation","","","","","",""
"-1","-1","single-stim","0","209","268862","0-0","","<div class = centerbox><p class = ANT_text>+</p></div>","fixation","","","","","",""
"999","-1","stim-feedback","0","210","270859","0-0","","<div class = centerbox><p class = ANT_text>+</p></div><div class = ANT_up><p class = ANT_text> &larr; &larr; &rarr; &larr; &larr; </p></div></div>","ANT_trial","NAN","39","right","incongruent","up","center"
"-1","-1","single-stim","0","211","273862","0-0","","<div class = centerbox><p class = ANT_text>+</p></div>","fixation","","","","","",""
"-1","-1","single-stim","0","212","275858","0-0","","<div class = centerbox><p class = ANT_text>+</p></div>","fixation","","","","","",""
"-1","-1","single-stim","0","213","276859","0-0","","<div class = centerbox><p class = ANT_text>+</p></div>","fixation","","","","","",""
"-1","-1","single-stim","0","214","277860","0-0","","<div class = centerbox><p class = ANT_text>+</p></div>","fixation","","","","","",""
"999","-1","stim-feedback","0","215","279860","0-0","","<div class = centerbox><p class = ANT_text>+</p></div><div class = ANT_up><p class = ANT_text> &larr; &larr; &rarr; &larr; &larr; </p></div></div>","ANT_trial","NAN","39","right","incongruent","up","nocue"
"-1","-1","single-stim","0","216","282861","0-0","","<div class = centerbox><p class = ANT_text>+</p></div>","fixation","","","","","",""
"-1","-1","single-stim","0","217","283859","0-0","","<div class = centerbox><p class = ANT_text>+</p></div>","fixation","","","","","",""
"-1","-1","single-stim","0","218","284860","0-0","","<div class = centerbox><div class = ANT_down><p class = ANT_text>*</p></div></div>","fixation","","","","","",""
"-1","-1","single-stim","0","219","285864","0-0","","<div class = centerbox><p class = ANT_text>+</p></div>","fixation","","","","","",""
"999","-1","stim-feedback","0","220","287859","0-0","","<div class = centerbox><p class = ANT_text>+</p></div><div class = ANT_down><p class = ANT_text> &rarr; &rarr; &larr; &rarr; &rarr; </p></div></div>","ANT_trial","NAN","37","left","incongruent","down","spatial"
"-1","-1","single-stim","0","221","290862","0-0","","<div class = centerbox><p class = ANT_text>+</p></div>","fixation","","","","","",""
"-1","-1","single-stim","0","222","292862","0-0","","<div class = centerbox><p class = ANT_text>+</p></div>","fixation","","","","","",""
"-1","-1","single-stim","0","223","293862","0-0","","<div class = centerbox><div class = ANT_down><p class = ANT_text>*</p></div></div>","fixation","","","","","",""
"-1","-1","single-stim","0","224","294861","0-0","","<div class = centerbox><p class = ANT_text>+</p></div>","fixation","","","","","",""
"999","-1","stim-feedback","0","225","296859","0-0","","<div class = centerbox><p class = ANT_text>+</p></div><div class = ANT_down><p class = ANT_text> &mdash; &mdash; &larr; &mdash; &mdash;</p></div></div>","ANT_trial","NAN","37","left","neutral","down","spatial"
"-1","-1","single-stim","0","226","299861","0-0","","<div class = centerbox><p class = ANT_text>+</p></div>","fixation","","","","","",""
"-1","-1","single-stim","0","227","301860","0-0","","<div class = centerbox><p class = ANT_text>+</p></div>","fixation","","","","","",""
"-1","-1","single-stim","0","228","302861","0-0","","<div class = centerbox><p class = ANT_text>+</p></div>","fixation","","","","","",""
"-1","-1","single-stim","0","229","303861","0-0","","<div class = centerbox><p class = ANT_text>+</p></div>","fixation","","","","","",""
"999","-1","stim-feedback","0","230","305857","0-0","","<div class = centerbox><p class = ANT_text>+</p></div><div class = ANT_down><p class = ANT_text> &rarr; &rarr; &larr; &rarr; &rarr; </p></div></div>","ANT_trial","NAN","37","left","incongruent","down","nocue"
"-1","-1","single-stim","0","231","307862","0-0","","<div class = centerbox><p class = ANT_text>+</p></div>","fixation","","","","","",""
"-1","-1","single-stim","0","232","309859","0-0","","<div class = centerbox><p class = ANT_text>+</p></div>","fixation","","","","","",""
"-1","-1","single-stim","0","233","310861","0-0","","<div class = centerbox><p class = ANT_text>+</p></div>","fixation","","","","","",""
"-1","-1","single-stim","0","234","311861","0-0","","<div class = centerbox><p class = ANT_text>+</p></div>","fixation","","","","","",""
"999","-1","stim-feedback","0","235","313860","0-0","","<div class = centerbox><p class = ANT_text>+</p></div><div class = ANT_down><p class = ANT_text> &mdash; &mdash; &larr; &mdash; &mdash;</p></div></div>","ANT_trial","NAN","37","left","neutral","down","nocue"
"-1","-1","single-stim","0","236","316857","0-0","","<div class = centerbox><p class = ANT_text>+</p></div>","fixation","","","","","",""
"-1","-1","single-stim","0","237","318862","0-0","","<div class = centerbox><p class = ANT_text>+</p></div>","fixation","","","","","",""
"-1","-1","single-stim","0","238","319858","0-0","","<div class = centerbox><p class = ANT_text>+</p></div><div class = ANT_down><p class = ANT_text>*</p></div><div class = ANT_up><p class = ANT_text>*</p></div></div>","fixation","","","","","",""
"-1","-1","single-stim","0","239","320861","0-0","","<div class = centerbox><p class = ANT_text>+</p></div>","fixation","","","","","",""
"999","-1","stim-feedback","0","240","322858","0-0","","<div class = centerbox><p class = ANT_text>+</p></div><div class = ANT_up><p class = ANT_text> &larr; &larr; &larr; &larr; &larr; </p></div></div>","ANT_trial","NAN","37","left","congruent","up","double"
"-1","-1","single-stim","0","241","325859","0-0","","<div class = centerbox><p class = ANT_text>+</p></div>","fixation","","","","","",""
"6084","13","text","0","242","332070","0-0","","","","","","","","",""
"-1","-1","single-stim","0","243","334321","0-0","","<div class = centerbox><p class = ANT_text>+</p></div>","fixation","","","","","",""
"-1","-1","single-stim","0","244","334423","0-0","","<div class = centerbox><p class = ANT_text>+</p></div>","fixation","","","","","",""
"-1","-1","single-stim","0","245","334827","0-0","","<div class = centerbox><p class = ANT_text>+</p></div>","fixation","","","","","",""
"999","-1","stim-feedback","0","246","336528","0-0","","<div class = centerbox><p class = ANT_text>+</p></div><div class = ANT_up><p class = ANT_text> &mdash; &mdash; &rarr; &mdash; &mdash; </p></div></div>","ANT_trial","NAN","39","right","neutral","up","nocue"
"-1","-1","single-stim","0","247","338805","0-0","","<div class = centerbox><p class = ANT_text>+</p></div>","fixation","","","","","",""
"-1","-1","single-stim","0","248","339843","0-0","","<div class = centerbox><p class = ANT_text>+</p></div>","fixation","","","","","",""
"-1","-1","single-stim","0","249","339945","0-0","","<div class = centerbox><p class = ANT_text>+</p></div><div class = ANT_down><p class = ANT_text>*</p></div><div class = ANT_up><p class = ANT_text>*</p></div></div>","fixation","","","","","",""
"-1","-1","single-stim","0","250","340347","0-0","","<div class = centerbox><p class = ANT_text>+</p></div>","fixation","","","","","",""
"169","37","stim-feedback","0","251","340669","0-0","","<div class = centerbox><p class = ANT_text>+</p></div><div class = ANT_up><p class = ANT_text> &mdash; &mdash; &rarr; &mdash; &mdash; </p></div></div>","ANT_trial","false","39","right","neutral","up","double"
"-1","-1","single-stim","0","252","343986","0-0","","<div class = centerbox><p class = ANT_text>+</p></div>","fixation","","","","","",""
"-1","-1","single-stim","0","253","344665","0-0","","<div class = centerbox><p class = ANT_text>+</p></div>","fixation","","","","","",""
"-1","-1","single-stim","0","254","344767","0-0","","<div class = centerbox><div class = ANT_up><p class = ANT_text>*</p></div></div>","fixation","","","","","",""
"-1","-1","single-stim","0","255","345171","0-0","","<div class = centerbox><p class = ANT_text>+</p></div>","fixation","","","","","",""
"689","37","stim-feedback","0","256","345997","0-0","","<div class = centerbox><p class = ANT_text>+</p></div><div class = ANT_up><p class = ANT_text> &larr; &larr; &larr; &larr; &larr; </p></div></div>","ANT_trial","true","37","left","congruent","up","spatial"
"-1","-1","single-stim","0","257","349152","0-0","","<div class = centerbox><p class = ANT_text>+</p></div>","fixation","","","","","",""
"-1","-1","single-stim","0","258","350290","0-0","","<div class = centerbox><p class = ANT_text>+</p></div>","fixation","","","","","",""
"-1","-1","single-stim","0","259","350391","0-0","","<div class = centerbox><p class = ANT_text>*</p></div>","fixation","","","","","",""
"-1","-1","single-stim","0","260","350792","0-0","","<div class = centerbox><p class = ANT_text>+</p></div>","fixation","","","","","",""
"999","-1","stim-feedback","0","261","352496","0-0","","<div class = centerbox><p class = ANT_text>+</p></div><div class = ANT_down><p class = ANT_text> &larr; &larr; &rarr; &larr; &larr; </p></div></div>","ANT_trial","NAN","39","right","incongruent","down","center"
"-1","-1","single-stim","0","262","354886","0-0","","<div class = centerbox><p class = ANT_text>+</p></div>","fixation","","","","","",""
"-1","-1","single-stim","0","263","356081","0-0","","<div class = centerbox><p class = ANT_text>+</p></div>","fixation","","","","","",""
"-1","-1","single-stim","0","264","356185","0-0","","<div class = centerbox><p class = ANT_text>+</p></div>","fixation","","","","","",""
"-1","-1","single-stim","0","265","356588","0-0","","<div class = centerbox><p class = ANT_text>+</p></div>","fixation","","","","","",""
"999","-1","stim-feedback","0","266","358290","0-0","","<div class = centerbox><p class = ANT_text>+</p></div><div class = ANT_down><p class = ANT_text> &mdash; &mdash; &rarr; &mdash; &mdash; </p></div></div>","ANT_trial","NAN","39","right","neutral","down","nocue"
"-1","-1","single-stim","0","267","360619","0-0","","<div class = centerbox><p class = ANT_text>+</p></div>","fixation","","","","","",""
"-1","-1","single-stim","0","268","361807","0-0","","<div class = centerbox><p class = ANT_text>+</p></div>","fixation","","","","","",""
"-1","-1","single-stim","0","269","361908","0-0","","<div class = centerbox><p class = ANT_text>+</p></div>","fixation","","","","","",""
"-1","-1","single-stim","0","270","362312","0-0","","<div class = centerbox><p class = ANT_text>+</p></div>","fixation","","","","","",""
"999","-1","stim-feedback","0","271","364015","0-0","","<div class = centerbox><p class = ANT_text>+</p></div><div class = ANT_down><p class = ANT_text> &larr; &larr; &larr; &larr; &larr; </p></div></div>","ANT_trial","NAN","37","left","congruent","down","nocue"
"-1","-1","single-stim","0","272","366359","0-0","","<div class = centerbox><p class = ANT_text>+</p></div>","fixation","","","","","",""
"-1","-1","single-stim","0","273","366885","0-0","","<div class = centerbox><p class = ANT_text>+</p></div>","fixation","","","","","",""
"-1","-1","single-stim","0","274","366986","0-0","","<div class = centerbox><p class = ANT_text>*</p></div>","fixation","","","","","",""
"-1","-1","single-stim","0","275","367388","0-0","","<div class = centerbox><p class = ANT_text>+</p></div>","fixation","","","","","",""
"999","-1","stim-feedback","0","276","369092","0-0","","<div class = centerbox><p class = ANT_text>+</p></div><div class = ANT_down><p class = ANT_text> &rarr; &rarr; &rarr; &rarr; &rarr; </p></div></div>","ANT_trial","NAN","39","right","congruent","down","center"
"-1","-1","single-stim","0","277","372093","0-0","","<div class = centerbox><p class = ANT_text>+</p></div>","fixation","","","","","",""
"-1","-1","single-stim","0","278","373666","0-0","","<div class = centerbox><p class = ANT_text>+</p></div>","fixation","","","","","",""
"-1","-1","single-stim","0","279","373771","0-0","","<div class = centerbox><p class = ANT_text>*</p></div>","fixation","","","","","",""
"-1","-1","single-stim","0","280","374173","0-0","","<div class = centerbox><p class = ANT_text>+</p></div>","fixation","","","","","",""
"999","-1","stim-feedback","0","281","375876","0-0","","<div class = centerbox><p class = ANT_text>+</p></div><div class = ANT_down><p class = ANT_text> &rarr; &rarr; &larr; &rarr; &rarr; </p></div></div>","ANT_trial","NAN","37","left","incongruent","down","center"
"-1","-1","single-stim","0","282","377826","0-0","","<div class = centerbox><p class = ANT_text>+</p></div>","fixation","","","","","",""
"-1","-1","single-stim","0","283","378376","0-0","","<div class = centerbox><p class = ANT_text>+</p></div>","fixation","","","","","",""
"-1","-1","single-stim","0","284","378479","0-0","","<div class = centerbox><p class = ANT_text>+</p></div><div class = ANT_down><p class = ANT_text>*</p></div><div class = ANT_up><p class = ANT_text>*</p></div></div>","fixation","","","","","",""
"-1","-1","single-stim","0","285","378882","0-0","","<div class = centerbox><p class = ANT_text>+</p></div>","fixation","","","","","",""
"999","-1","stim-feedback","0","286","380587","0-0","","<div class = centerbox><p class = ANT_text>+</p></div><div class = ANT_up><p class = ANT_text> &rarr; &rarr; &larr; &rarr; &rarr; </p></div></div>","ANT_trial","NAN","37","left","incongruent","up","double"
"-1","-1","single-stim","0","287","383558","0-0","","<div class = centerbox><p class = ANT_text>+</p></div>","fixation","","","","","",""
"-1","-1","single-stim","0","288","383988","0-0","","<div class = centerbox><p class = ANT_text>+</p></div>","fixation","","","","","",""
"-1","-1","single-stim","0","289","384092","0-0","","<div class = centerbox><p class = ANT_text>+</p></div>","fixation","","","","","",""
"-1","-1","single-stim","0","290","384497","0-0","","<div class = centerbox><p class = ANT_text>+</p></div>","fixation","","","","","",""
"999","-1","stim-feedback","0","291","386203","0-0","","<div class = centerbox><p class = ANT_text>+</p></div><div class = ANT_down><p class = ANT_text> &larr; &larr; &rarr; &larr; &larr; </p></div></div>","ANT_trial","NAN","39","right","incongruent","down","nocue"
"-1","-1","single-stim","0","292","389296","0-0","","<div class = centerbox><p class = ANT_text>+</p></div>","fixation","","","","","",""
"-1","-1","single-stim","0","293","390861","0-0","","<div class = centerbox><p class = ANT_text>+</p></div>","fixation","","","","","",""
"-1","-1","single-stim","0","294","390963","0-0","","<div class = centerbox><p class = ANT_text>+</p></div>","fixation","","","","","",""
"-1","-1","single-stim","0","295","391369","0-0","","<div class = centerbox><p class = ANT_text>+</p></div>","fixation","","","","","",""
"999","-1","stim-feedback","0","296","393074","0-0","","<div class = centerbox><p class = ANT_text>+</p></div><div class = ANT_up><p class = ANT_text> &rarr; &rarr; &rarr; &rarr; &rarr; </p></div></div>","ANT_trial","NAN","39","right","congruent","up","nocue"
"-1","-1","single-stim","0","297","395684","0-0","","<div class = centerbox><p class = ANT_text>+</p></div>","fixation","","","","","",""
"-1","-1","single-stim","0","298","396860","0-0","","<div class = centerbox><p class = ANT_text>+</p></div>","fixation","","","","","",""
"-1","-1","single-stim","0","299","397860","0-0","","<div class = centerbox><div class = ANT_down><p class = ANT_text>*</p></div></div>","fixation","","","","","",""
"-1","-1","single-stim","0","300","398861","0-0","","<div class = centerbox><p class = ANT_text>+</p></div>","fixation","","","","","",""
"999","-1","stim-feedback","0","301","400859","0-0","","<div class = centerbox><p class = ANT_text>+</p></div><div class = ANT_down><p class = ANT_text> &rarr; &rarr; &rarr; &rarr; &rarr; </p></div></div>","ANT_trial","NAN","39","right","congruent","down","spatial"
"-1","-1","single-stim","0","302","403860","0-0","","<div class = centerbox><p class = ANT_text>+</p></div>","fixation","","","","","",""
"-1","-1","single-stim","0","303","405860","0-0","","<div class = centerbox><p class = ANT_text>+</p></div>","fixation","","","","","",""
"-1","-1","single-stim","0","304","406861","0-0","","<div class = centerbox><div class = ANT_up><p class = ANT_text>*</p></div></div>","fixation","","","","","",""
"-1","-1","single-stim","0","305","407859","0-0","","<div class = centerbox><p class = ANT_text>+</p></div>","fixation","","","","","",""
"999","-1","stim-feedback","0","306","409860","0-0","","<div class = centerbox><p class = ANT_text>+</p></div><div class = ANT_up><p class = ANT_text> &larr; &larr; &rarr; &larr; &larr; </p></div></div>","ANT_trial","NAN","39","right","incongruent","up","spatial"
"-1","-1","single-stim","0","307","413860","0-0","","<div class = centerbox><p class = ANT_text>+</p></div>","fixation","","","","","",""
"-1","-1","single-stim","0","308","414859","0-0","","<div class = centerbox><p class = ANT_text>+</p></div>","fixation","","","","","",""
"-1","-1","single-stim","0","309","415857","0-0","","<div class = centerbox><p class = ANT_text>*</p></div>","fixation","","","","","",""
"-1","-1","single-stim","0","310","416857","0-0","","<div class = centerbox><p class = ANT_text>+</p></div>","fixation","","","","","",""
"999","-1","stim-feedback","0","311","418858","0-0","","<div class = centerbox><p class = ANT_text>+</p></div><div class = ANT_down><p class = ANT_text> &mdash; &mdash; &rarr; &mdash; &mdash; </p></div></div>","ANT_trial","NAN","39","right","neutral","down","center"
"-1","-1","single-stim","0","312","421858","0-0","","<div class = centerbox><p class = ANT_text>+</p></div>","fixation","","","","","",""
"-1","-1","single-stim","0","313","422857","0-0","","<div class = centerbox><p class = ANT_text>+</p></div>","fixation","","","","","",""
"-1","-1","single-stim","0","314","423858","0-0","","<div class = centerbox><p class = ANT_text>+</p></div>","fixation","","","","","",""
"-1","-1","single-stim","0","315","424860","0-0","","<div class = centerbox><p class = ANT_text>+</p></div>","fixation","","","","","",""
"999","-1","stim-feedback","0","316","426857","0-0","","<div class = centerbox><p class = ANT_text>+</p></div><div class = ANT_down><p class = ANT_text> &mdash; &mdash; &larr; &mdash; &mdash;</p></div></div>","ANT_trial","NAN","37","left","neutral","down","nocue"
"-1","-1","single-stim","0","317","430857","0-0","","<div class = centerbox><p class = ANT_text>+</p></div>","fixation","","","","","",""
"-1","-1","single-stim","0","318","431861","0-0","","<div class = centerbox><p class = ANT_text>+</p></div>","fixation","","","","","",""
"-1","-1","single-stim","0","319","432862","0-0","","<div class = centerbox><div class = ANT_down><p class = ANT_text>*</p></div></div>","fixation","","","","","",""
"-1","-1","single-stim","0","320","433858","0-0","","<div class = centerbox><p class = ANT_text>+</p></div>","fixation","","","","","",""
"999","-1","stim-feedback","0","321","435858","0-0","","<div class = centerbox><p class = ANT_text>+</p></div><div class = ANT_down><p class = ANT_text> &larr; &larr; &rarr; &larr; &larr; </p></div></div>","ANT_trial","NAN","39","right","incongruent","down","spatial"
"-1","-1","single-stim","0","322","438858","0-0","","<div class = centerbox><p class = ANT_text>+</p></div>","fixation","","","","","",""
"-1","-1","single-stim","0","323","439858","0-0","","<div class = centerbox><p class = ANT_text>+</p></div>","fixation","","","","","",""
"-1","-1","single-stim","0","324","440859","0-0","","<div class = centerbox><p class = ANT_text>*</p></div>","fixation","","","","","",""
"-1","-1","single-stim","0","325","441860","0-0","","<div class = centerbox><p class = ANT_text>+</p></div>","fixation","","","","","",""
"999","-1","stim-feedback","0","326","443859","0-0","","<div class = centerbox><p class = ANT_text>+</p></div><div class = ANT_up><p class = ANT_text> &rarr; &rarr; &rarr; &rarr; &rarr; </p></div></div>","ANT_trial","NAN","39","right","congruent","up","center"
"-1","-1","single-stim","0","327","447857","0-0","","<div class = centerbox><p class = ANT_text>+</p></div>","fixation","","","","","",""
"-1","-1","single-stim","0","328","448859","0-0","","<div class = centerbox><p class = ANT_text>+</p></div>","fixation","","","","","",""
"-1","-1","single-stim","0","329","449856","0-0","","<div class = centerbox><p class = ANT_text>+</p></div>","fixation","","","","","",""
"-1","-1","single-stim","0","330","450858","0-0","","<div class = centerbox><p class = ANT_text>+</p></div>","fixation","","","","","",""
"999","-1","stim-feedback","0","331","452861","0-0","","<div class = centerbox><p class = ANT_text>+</p></div><div class = ANT_up><p class = ANT_text> &rarr; &rarr; &larr; &rarr; &rarr; </p></div></div>","ANT_trial","NAN","37","left","incongruent","up","nocue"
"-1","-1","single-stim","0","332","456860","0-0","","<div class = centerbox><p class = ANT_text>+</p></div>","fixation","","","","","",""
"-1","-1","single-stim","0","333","457856","0-0","","<div class = centerbox><p class = ANT_text>+</p></div>","fixation","","","","","",""
"-1","-1","single-stim","0","334","458859","0-0","","<div class = centerbox><p class = ANT_text>*</p></div>","fixation","","","","","",""
"-1","-1","single-stim","0","335","459858","0-0","","<div class = centerbox><p class = ANT_text>+</p></div>","fixation","","","","","",""
"999","-1","stim-feedback","0","336","461856","0-0","","<div class = centerbox><p class = ANT_text>+</p></div><div class = ANT_up><p class = ANT_text> &mdash; &mdash; &larr; &mdash; &mdash;</p></div></div>","ANT_trial","NAN","37","left","neutral","up","center"
"-1","-1","single-stim","0","337","465860","0-0","","<div class = centerbox><p class = ANT_text>+</p></div>","fixation","","","","","",""
"-1","-1","single-stim","0","338","467875","0-0","","<div class = centerbox><p class = ANT_text>+</p></div>","fixation","","","","","",""
"-1","-1","single-stim","0","339","468857","0-0","","<div class = centerbox><p class = ANT_text>+</p></div><div class = ANT_down><p class = ANT_text>*</p></div><div class = ANT_up><p class = ANT_text>*</p></div></div>","fixation","","","","","",""
"-1","-1","single-stim","0","340","469856","0-0","","<div class = centerbox><p class = ANT_text>+</p></div>","fixation","","","","","",""
"999","-1","stim-feedback","0","341","471857","0-0","","<div class = centerbox><p class = ANT_text>+</p></div><div class = ANT_down><p class = ANT_text> &larr; &larr; &larr; &larr; &larr; </p></div></div>","ANT_trial","NAN","37","left","congruent","down","double"
"-1","-1","single-stim","0","342","474858","0-0","","<div class = centerbox><p class = ANT_text>+</p></div>","fixation","","","","","",""
"-1","-1","single-stim","0","343","476856","0-0","","<div class = centerbox><p class = ANT_text>+</p></div>","fixation","","","","","",""
"-1","-1","single-stim","0","344","477859","0-0","","<div class = centerbox><div class = ANT_up><p class = ANT_text>*</p></div></div>","fixation","","","","","",""
"-1","-1","single-stim","0","345","478857","0-0","","<div class = centerbox><p class = ANT_text>+</p></div>","fixation","","","","","",""
"999","-1","stim-feedback","0","346","480860","0-0","","<div class = centerbox><p class = ANT_text>+</p></div><div class = ANT_up><p class = ANT_text> &mdash; &mdash; &rarr; &mdash; &mdash; </p></div></div>","ANT_trial","NAN","39","right","neutral","up","spatial"
"-1","-1","single-stim","0","347","484860","0-0","","<div class = centerbox><p class = ANT_text>+</p></div>","fixation","","","","","",""
"-1","-1","single-stim","0","348","485856","0-0","","<div class = centerbox><p class = ANT_text>+</p></div>","fixation","","","","","",""
"-1","-1","single-stim","0","349","486858","0-0","","<div class = centerbox><div class = ANT_up><p class = ANT_text>*</p></div></div>","fixation","","","","","",""
"-1","-1","single-stim","0","350","487858","0-0","","<div class = centerbox><p class = ANT_text>+</p></div>","fixation","","","","","",""
"999","-1","stim-feedback","0","351","489858","0-0","","<div class = centerbox><p class = ANT_text>+</p></div><div class = ANT_up><p class = ANT_text> &rarr; &rarr; &rarr; &rarr; &rarr; </p></div></div>","ANT_trial","NAN","39","right","congruent","up","spatial"
"-1","-1","single-stim","0","352","493858","0-0","","<div class = centerbox><p class = ANT_text>+</p></div>","fixation","","","","","",""
"-1","-1","single-stim","0","353","494860","0-0","","<div class = centerbox><p class = ANT_text>+</p></div>","fixation","","","","","",""
"-1","-1","single-stim","0","354","495860","0-0","","<div class = centerbox><p class = ANT_text>+</p></div><div class = ANT_down><p class = ANT_text>*</p></div><div class = ANT_up><p class = ANT_text>*</p></div></div>","fixation","","","","","",""
"-1","-1","single-stim","0","355","496859","0-0","","<div class = centerbox><p class = ANT_text>+</p></div>","fixation","","","","","",""
"999","-1","stim-feedback","0","356","498860","0-0","","<div class = centerbox><p class = ANT_text>+</p></div><div class = ANT_down><p class = ANT_text> &rarr; &rarr; &larr; &rarr; &rarr; </p></div></div>","ANT_trial","NAN","37","left","incongruent","down","double"
"-1","-1","single-stim","0","357","503859","0-0","","<div class = centerbox><p class = ANT_text>+</p></div>","fixation","","","","","",""
"-1","-1","single-stim","0","358","504858","0-0","","<div class = centerbox><p class = ANT_text>+</p></div>","fixation","","","","","",""
"-1","-1","single-stim","0","359","505860","0-0","","<div class = centerbox><p class = ANT_text>*</p></div>","fixation","","","","","",""
"-1","-1","single-stim","0","360","506860","0-0","","<div class = centerbox><p class = ANT_text>+</p></div>","fixation","","","","","",""
"999","-1","stim-feedback","0","361","508857","0-0","","<div class = centerbox><p class = ANT_text>+</p></div><div class = ANT_down><p class = ANT_text> &mdash; &mdash; &larr; &mdash; &mdash;</p></div></div>","ANT_trial","NAN","37","left","neutral","down","center"
"-1","-1","single-stim","0","362","511858","0-0","","<div class = centerbox><p class = ANT_text>+</p></div>","fixation","","","","","",""
"-1","-1","single-stim","0","363","513857","0-0","","<div class = centerbox><p class = ANT_text>+</p></div>","fixation","","","","","",""
"-1","-1","single-stim","0","364","514856","0-0","","<div class = centerbox><div class = ANT_down><p class = ANT_text>*</p></div></div>","fixation","","","","","",""
"-1","-1","single-stim","0","365","515858","0-0","","<div class = centerbox><p class = ANT_text>+</p></div>","fixation","","","","","",""
"999","-1","stim-feedback","0","366","517859","0-0","","<div class = centerbox><p class = ANT_text>+</p></div><div class = ANT_down><p class = ANT_text> &larr; &larr; &larr; &larr; &larr; </p></div></div>","ANT_trial","NAN","37","left","congruent","down","spatial"
"-1","-1","single-stim","0","367","521859","0-0","","<div class = centerbox><p class = ANT_text>+</p></div>","fixation","","","","","",""
"-1","-1","single-stim","0","368","522859","0-0","","<div class = centerbox><p class = ANT_text>+</p></div>","fixation","","","","","",""
"-1","-1","single-stim","0","369","523856","0-0","","<div class = centerbox><p class = ANT_text>+</p></div><div class = ANT_down><p class = ANT_text>*</p></div><div class = ANT_up><p class = ANT_text>*</p></div></div>","fixation","","","","","",""
"-1","-1","single-stim","0","370","524859","0-0","","<div class = centerbox><p class = ANT_text>+</p></div>","fixation","","","","","",""
"999","-1","stim-feedback","0","371","526856","0-0","","<div class = centerbox><p class = ANT_text>+</p></div><div class = ANT_up><p class = ANT_text> &mdash; &mdash; &larr; &mdash; &mdash;</p></div></div>","ANT_trial","NAN","37","left","neutral","up","double"
"-1","-1","single-stim","0","372","529855","0-0","","<div class = centerbox><p class = ANT_text>+</p></div>","fixation","","","","","",""
"-1","-1","single-stim","0","373","531857","0-0","","<div class = centerbox><p class = ANT_text>+</p></div>","fixation","","","","","",""
"-1","-1","single-stim","0","374","532858","0-0","","<div class = centerbox><p class = ANT_text>+</p></div><div class = ANT_down><p class = ANT_text>*</p></div><div class = ANT_up><p class = ANT_text>*</p></div></div>","fixation","","","","","",""
"-1","-1","single-stim","0","375","533856","0-0","","<div class = centerbox><p class = ANT_text>+</p></div>","fixation","","","","","",""
"999","-1","stim-feedback","0","376","535856","0-0","","<div class = centerbox><p class = ANT_text>+</p></div><div class = ANT_down><p class = ANT_text> &mdash; &mdash; &rarr; &mdash; &mdash; </p></div></div>","ANT_trial","NAN","39","right","neutral","down","double"
"-1","-1","single-stim","0","377","538860","0-0","","<div class = centerbox><p class = ANT_text>+</p></div>","fixation","","","","","",""
"-1","-1","single-stim","0","378","539857","0-0","","<div class = centerbox><p class = ANT_text>+</p></div>","fixation","","","","","",""
"-1","-1","single-stim","0","379","540857","0-0","","<div class = centerbox><div class = ANT_down><p class = ANT_text>*</p></div></div>","fixation","","","","","",""
"-1","-1","single-stim","0","380","541857","0-0","","<div class = centerbox><p class = ANT_text>+</p></div>","fixation","","","","","",""
"999","-1","stim-feedback","0","381","543856","0-0","","<div class = centerbox><p class = ANT_text>+</p></div><div class = ANT_down><p class = ANT_text> &mdash; &mdash; &rarr; &mdash; &mdash; </p></div></div>","ANT_trial","NAN","39","right","neutral","down","spatial"
"-1","-1","single-stim","0","382","546857","0-0","","<div class = centerbox><p class = ANT_text>+</p></div>","fixation","","","","","",""
"-1","-1","single-stim","0","383","547855","0-0","","<div class = centerbox><p class = ANT_text>+</p></div>","fixation","","","","","",""
"-1","-1","single-stim","0","384","548859","0-0","","<div class = centerbox><p class = ANT_text>+</p></div>","fixation","","","","","",""
"-1","-1","single-stim","0","385","549858","0-0","","<div class = centerbox><p class = ANT_text>+</p></div>","fixation","","","","","",""
"999","-1","stim-feedback","0","386","551859","0-0","","<div class = centerbox><p class = ANT_text>+</p></div><div class = ANT_up><p class = ANT_text> &larr; &larr; &larr; &larr; &larr; </p></div></div>","ANT_trial","NAN","37","left","congruent","up","nocue"
"-1","-1","single-stim","0","387","555859","0-0","","<div class = centerbox><p class = ANT_text>+</p></div>","fixation","","","","","",""
"-1","-1","single-stim","0","388","556858","0-0","","<div class = centerbox><p class = ANT_text>+</p></div>","fixation","","","","","",""
"-1","-1","single-stim","0","389","557858","0-0","","<div class = centerbox><p class = ANT_text>*</p></div>","fixation","","","","","",""
"-1","-1","single-stim","0","390","558859","0-0","","<div class = centerbox><p class = ANT_text>+</p></div>","fixation","","","","","",""
"999","-1","stim-feedback","0","391","560858","0-0","","<div class = centerbox><p class = ANT_text>+</p></div><div class = ANT_up><p class = ANT_text> &mdash; &mdash; &rarr; &mdash; &mdash; </p></div></div>","ANT_trial","NAN","39","right","neutral","up","center"
"-1","-1","single-stim","0","392","564858","0-0","","<div class = centerbox><p class = ANT_text>+</p></div>","fixation","","","","","",""
"-1","-1","single-stim","0","393","565856","0-0","","<div class = centerbox><p class = ANT_text>+</p></div>","fixation","","","","","",""
"-1","-1","single-stim","0","394","566855","0-0","","<div class = centerbox><p class = ANT_text>*</p></div>","fixation","","","","","",""
"-1","-1","single-stim","0","395","567856","0-0","","<div class = centerbox><p class = ANT_text>+</p></div>","fixation","","","","","",""
"999","-1","stim-feedback","0","396","569858","0-0","","<div class = centerbox><p class = ANT_text>+</p></div><div class = ANT_down><p class = ANT_text> &larr; &larr; &larr; &larr; &larr; </p></div></div>","ANT_trial","NAN","37","left","congruent","down","center"
"-1","-1","single-stim","0","397","573856","0-0","","<div class = centerbox><p class = ANT_text>+</p></div>","fixation","","","","","",""
"-1","-1","single-stim","0","398","575859","0-0","","<div class = centerbox><p class = ANT_text>+</p></div>","fixation","","","","","",""
"-1","-1","single-stim","0","399","576857","0-0","","<div class = centerbox><div class = ANT_down><p class = ANT_text>*</p></div></div>","fixation","","","","","",""
"-1","-1","single-stim","0","400","577858","0-0","","<div class = centerbox><p class = ANT_text>+</p></div>","fixation","","","","","",""
"999","-1","stim-feedback","0","401","579858","0-0","","<div class = centerbox><p class = ANT_text>+</p></div><div class = ANT_down><p class = ANT_text> &rarr; &rarr; &larr; &rarr; &rarr; </p></div></div>","ANT_trial","NAN","37","left","incongruent","down","spatial"
"-1","-1","single-stim","0","402","583857","0-0","","<div class = centerbox><p class = ANT_text>+</p></div>","fixation","","","","","",""
"-1","-1","single-stim","0","403","585017","0-0","","<div class = centerbox><p class = ANT_text>+</p></div>","fixation","","","","","",""
"-1","-1","single-stim","0","404","585120","0-0","","<div class = centerbox><p class = ANT_text>+</p></div>","fixation","","","","","",""
"-1","-1","single-stim","0","405","585526","0-0","","<div class = centerbox><p class = ANT_text>+</p></div>","fixation","","","","","",""
"927","37","stim-feedback","0","406","586587","0-0","","<div class = centerbox><p class = ANT_text>+</p></div><div class = ANT_up><p class = ANT_text> &larr; &larr; &rarr; &larr; &larr; </p></div></div>","ANT_trial","false","39","right","incongruent","up","nocue"
"-1","-1","single-stim","0","407","589029","0-0","","<div class = centerbox><p class = ANT_text>+</p></div>","fixation","","","","","",""
"-1","-1","single-stim","0","408","590552","0-0","","<div class = centerbox><p class = ANT_text>+</p></div>","fixation","","","","","",""
"-1","-1","single-stim","0","409","590655","0-0","","<div class = centerbox><p class = ANT_text>+</p></div><div class = ANT_down><p class = ANT_text>*</p></div><div class = ANT_up><p class = ANT_text>*</p></div></div>","fixation","","","","","",""
"-1","-1","single-stim","0","410","591056","0-0","","<div class = centerbox><p class = ANT_text>+</p></div>","fixation","","","","","",""
"563","39","stim-feedback","0","411","591682","0-0","","<div class = centerbox><p class = ANT_text>+</p></div><div class = ANT_up><p class = ANT_text> &larr; &larr; &rarr; &larr; &larr; </p></div></div>","ANT_trial","true","39","right","incongruent","up","double"
"-1","-1","single-stim","0","412","594126","0-0","","<div class = centerbox><p class = ANT_text>+</p></div>","fixation","","","","","",""
"-1","-1","single-stim","0","413","595330","0-0","","<div class = centerbox><p class = ANT_text>+</p></div>","fixation","","","","","",""
"-1","-1","single-stim","0","414","595432","0-0","","<div class = centerbox><p class = ANT_text>*</p></div>","fixation","","","","","",""
"-1","-1","single-stim","0","415","595834","0-0","","<div class = centerbox><p class = ANT_text>+</p></div>","fixation","","","","","",""
"408","37","stim-feedback","0","416","596354","0-0","","<div class = centerbox><p class = ANT_text>+</p></div><div class = ANT_up><p class = ANT_text> &larr; &larr; &larr; &larr; &larr; </p></div></div>","ANT_trial","true","37","left","congruent","up","center"
"-1","-1","single-stim","0","417","599271","0-0","","<div class = centerbox><p class = ANT_text>+</p></div>","fixation","","","","","",""
"-1","-1","single-stim","0","418","600784","0-0","","<div class = centerbox><p class = ANT_text>+</p></div>","fixation","","","","","",""
"-1","-1","single-stim","0","419","600886","0-0","","<div class = centerbox><p class = ANT_text>+</p></div><div class = ANT_down><p class = ANT_text>*</p></div><div class = ANT_up><p class = ANT_text>*</p></div></div>","fixation","","","","","",""
"-1","-1","single-stim","0","420","601291","0-0","","<div class = centerbox><p class = ANT_text>+</p></div>","fixation","","","","","",""
"359","39","stim-feedback","0","421","601754","0-0","","<div class = centerbox><p class = ANT_text>+</p></div><div class = ANT_up><p class = ANT_text> &rarr; &rarr; &rarr; &rarr; &rarr; </p></div></div>","ANT_trial","true","39","right","congruent","up","double"
"-1","-1","single-stim","0","422","604410","0-0","","<div class = centerbox><p class = ANT_text>+</p></div>","fixation","","","","","",""
"-1","-1","single-stim","0","423","605132","0-0","","<div class = centerbox><p class = ANT_text>+</p></div>","fixation","","","","","",""
"-1","-1","single-stim","0","424","605233","0-0","","<div class = centerbox><p class = ANT_text>*</p></div>","fixation","","","","","",""
"-1","-1","single-stim","0","425","605637","0-0","","<div class = centerbox><p class = ANT_text>+</p></div>","fixation","","","","","",""
"572","37","stim-feedback","0","426","606322","0-0","","<div class = centerbox><p class = ANT_text>+</p></div><div class = ANT_up><p class = ANT_text> &rarr; &rarr; &larr; &rarr; &rarr; </p></div></div>","ANT_trial","true","37","left","incongruent","up","center"
"-1","-1","single-stim","0","427","609561","0-0","","<div class = centerbox><p class = ANT_text>+</p></div>","fixation","","","","","",""
"-1","-1","single-stim","0","428","611025","0-0","","<div class = centerbox><p class = ANT_text>+</p></div>","fixation","","","","","",""
"-1","-1","single-stim","0","429","611129","0-0","","<div class = centerbox><p class = ANT_text>+</p></div>","fixation","","","","","",""
"-1","-1","single-stim","0","430","611533","0-0","","<div class = centerbox><p class = ANT_text>+</p></div>","fixation","","","","","",""
"413","39","stim-feedback","0","431","612042","0-0","","<div class = centerbox><p class = ANT_text>+</p></div><div class = ANT_down><p class = ANT_text> &rarr; &rarr; &larr; &rarr; &rarr; </p></div></div>","ANT_trial","false","37","left","incongruent","down","nocue"
"-1","-1","single-stim","0","432","614694","0-0","","<div class = centerbox><p class = ANT_text>+</p></div>","fixation","","","","","",""
"-1","-1","single-stim","0","433","615314","0-0","","<div class = centerbox><p class = ANT_text>+</p></div>","fixation","","","","","",""
"-1","-1","single-stim","0","434","615417","0-0","","<div class = centerbox><p class = ANT_text>*</p></div>","fixation","","","","","",""
"-1","-1","single-stim","0","435","615822","0-0","","<div class = centerbox><p class = ANT_text>+</p></div>","fixation","","","","","",""
"580","39","stim-feedback","0","436","616490","0-0","","<div class = centerbox><p class = ANT_text>+</p></div><div class = ANT_up><p class = ANT_text> &larr; &larr; &rarr; &larr; &larr; </p></div></div>","ANT_trial","true","39","right","incongruent","up","center"
"-1","-1","single-stim","0","437","619819","0-0","","<div class = centerbox><p class = ANT_text>+</p></div>","fixation","","","","","",""
"-1","-1","single-stim","0","438","620972","0-0","","<div class = centerbox><p class = ANT_text>+</p></div>","fixation","","","","","",""
"-1","-1","single-stim","0","439","621072","0-0","","<div class = centerbox><div class = ANT_up><p class = ANT_text>*</p></div></div>","fixation","","","","","",""
"-1","-1","single-stim","0","440","621477","0-0","","<div class = centerbox><p class = ANT_text>+</p></div>","fixation","","","","","",""
"413","37","stim-feedback","0","441","621986","0-0","","<div class = centerbox><p class = ANT_text>+</p></div><div class = ANT_up><p class = ANT_text> &mdash; &mdash; &larr; &mdash; &mdash;</p></div></div>","ANT_trial","true","37","left","neutral","up","spatial"
"-1","-1","single-stim","0","442","624946","0-0","","<div class = centerbox><p class = ANT_text>+</p></div>","fixation","","","","","",""
"-1","-1","single-stim","0","443","625800","0-0","","<div class = centerbox><p class = ANT_text>+</p></div>","fixation","","","","","",""
"-1","-1","single-stim","0","444","625901","0-0","","<div class = centerbox><div class = ANT_up><p class = ANT_text>*</p></div></div>","fixation","","","","","",""
"-1","-1","single-stim","0","445","626303","0-0","","<div class = centerbox><p class = ANT_text>+</p></div>","fixation","","","","","",""
"460","37","stim-feedback","0","446","626834","0-0","","<div class = centerbox><p class = ANT_text>+</p></div><div class = ANT_up><p class = ANT_text> &rarr; &rarr; &larr; &rarr; &rarr; </p></div></div>","ANT_trial","true","37","left","incongruent","up","spatial"
"-1","-1","single-stim","0","447","630049","0-0","","<div class = centerbox><p class = ANT_text>+</p></div>","fixation","","","","","",""
"-1","-1","single-stim","0","448","630702","0-0","","<div class = centerbox><p class = ANT_text>+</p></div>","fixation","","","","","",""
"-1","-1","single-stim","0","449","630804","0-0","","<div class = centerbox><p class = ANT_text>+</p></div><div class = ANT_down><p class = ANT_text>*</p></div><div class = ANT_up><p class = ANT_text>*</p></div></div>","fixation","","","","","",""
"-1","-1","single-stim","0","450","631206","0-0","","<div class = centerbox><p class = ANT_text>+</p></div>","fixation","","","","","",""
"636","37","stim-feedback","0","451","631986","0-0","","<div class = centerbox><p class = ANT_text>+</p></div><div class = ANT_down><p class = ANT_text> &mdash; &mdash; &larr; &mdash; &mdash;</p></div></div>","ANT_trial","true","37","left","neutral","down","double"
"-1","-1","single-stim","0","452","635225","0-0","","<div class = centerbox><p class = ANT_text>+</p></div>","fixation","","","","","",""
"-1","-1","single-stim","0","453","635795","0-0","","<div class = centerbox><p class = ANT_text>+</p></div>","fixation","","","","","",""
"-1","-1","single-stim","0","454","635897","0-0","","<div class = centerbox><div class = ANT_down><p class = ANT_text>*</p></div></div>","fixation","","","","","",""
"-1","-1","single-stim","0","455","636300","0-0","","<div class = centerbox><p class = ANT_text>+</p></div>","fixation","","","","","",""
"999","-1","stim-feedback","0","456","638005","0-0","","<div class = centerbox><p class = ANT_text>+</p></div><div class = ANT_down><p class = ANT_text> &mdash; &mdash; &larr; &mdash; &mdash;</p></div></div>","ANT_trial","NAN","37","left","neutral","down","spatial"
"-1","-1","single-stim","0","457","640966","0-0","","<div class = centerbox><p class = ANT_text>+</p></div>","fixation","","","","","",""
"-1","-1","single-stim","0","458","641841","0-0","","<div class = centerbox><p class = ANT_text>+</p></div>","fixation","","","","","",""
"-1","-1","single-stim","0","459","641942","0-0","","<div class = centerbox><p class = ANT_text>+</p></div><div class = ANT_down><p class = ANT_text>*</p></div><div class = ANT_up><p class = ANT_text>*</p></div></div>","fixation","","","","","",""
"-1","-1","single-stim","0","460","642347","0-0","","<div class = centerbox><p class = ANT_text>+</p></div>","fixation","","","","","",""
"550","39","stim-feedback","0","461","642994","0-0","","<div class = centerbox><p class = ANT_text>+</p></div><div class = ANT_down><p class = ANT_text> &rarr; &rarr; &rarr; &rarr; &rarr; </p></div></div>","ANT_trial","true","39","right","congruent","down","double"
"-1","-1","single-stim","0","462","647858","0-0","","<div class = centerbox><p class = ANT_text>+</p></div>","fixation","","","","","",""
"-1","-1","single-stim","0","463","648855","0-0","","<div class = centerbox><p class = ANT_text>+</p></div>","fixation","","","","","",""
"-1","-1","single-stim","0","464","649858","0-0","","<div class = centerbox><p class = ANT_text>+</p></div><div class = ANT_down><p class = ANT_text>*</p></div><div class = ANT_up><p class = ANT_text>*</p></div></div>","fixation","","","","","",""
"-1","-1","single-stim","0","465","650855","0-0","","<div class = centerbox><p class = ANT_text>+</p></div>","fixation","","","","","",""
"999","-1","stim-feedback","0","466","652858","0-0","","<div class = centerbox><p class = ANT_text>+</p></div><div class = ANT_up><p class = ANT_text> &larr; &larr; &larr; &larr; &larr; </p></div></div>","ANT_trial","NAN","37","left","congruent","up","double"
"-1","-1","single-stim","0","467","656858","0-0","","<div class = centerbox><p class = ANT_text>+</p></div>","fixation","","","","","",""
"-1","-1","single-stim","0","468","657857","0-0","","<div class = centerbox><p class = ANT_text>+</p></div>","fixation","","","","","",""
"-1","-1","single-stim","0","469","658854","0-0","","<div class = centerbox><p class = ANT_text>+</p></div><div class = ANT_down><p class = ANT_text>*</p></div><div class = ANT_up><p class = ANT_text>*</p></div></div>","fixation","","","","","",""
"-1","-1","single-stim","0","470","659855","0-0","","<div class = centerbox><p class = ANT_text>+</p></div>","fixation","","","","","",""
"999","-1","stim-feedback","0","471","661856","0-0","","<div class = centerbox><p class = ANT_text>+</p></div><div class = ANT_down><p class = ANT_text> &larr; &larr; &rarr; &larr; &larr; </p></div></div>","ANT_trial","NAN","39","right","incongruent","down","double"
"-1","-1","single-stim","0","472","665857","0-0","","<div class = centerbox><p class = ANT_text>+</p></div>","fixation","","","","","",""
"-1","-1","single-stim","0","473","667858","0-0","","<div class = centerbox><p class = ANT_text>+</p></div>","fixation","","","","","",""
"-1","-1","single-stim","0","474","668858","0-0","","<div class = centerbox><p class = ANT_text>+</p></div>","fixation","","","","","",""
"-1","-1","single-stim","0","475","669858","0-0","","<div class = centerbox><p class = ANT_text>+</p></div>","fixation","","","","","",""
"999","-1","stim-feedback","0","476","671858","0-0","","<div class = centerbox><p class = ANT_text>+</p></div><div class = ANT_down><p class = ANT_text> &rarr; &rarr; &rarr; &rarr; &rarr; </p></div></div>","ANT_trial","NAN","39","right","congruent","down","nocue"
"-1","-1","single-stim","0","477","674855","0-0","","<div class = centerbox><p class = ANT_text>+</p></div>","fixation","","","","","",""
"-1","-1","single-stim","0","478","675857","0-0","","<div class = centerbox><p class = ANT_text>+</p></div>","fixation","","","","","",""
"-1","-1","single-stim","0","479","676858","0-0","","<div class = centerbox><p class = ANT_text>+</p></div>","fixation","","","","","",""
"-1","-1","single-stim","0","480","677856","0-0","","<div class = centerbox><p class = ANT_text>+</p></div>","fixation","","","","","",""
"999","-1","stim-feedback","0","481","679854","0-0","","<div class = centerbox><p class = ANT_text>+</p></div><div class = ANT_up><p class = ANT_text> &mdash; &mdash; &larr; &mdash; &mdash;</p></div></div>","ANT_trial","NAN","37","left","neutral","up","nocue"
"-1","-1","single-stim","0","482","683855","0-0","","<div class = centerbox><p class = ANT_text>+</p></div>","fixation","","","","","",""
"43347","13","text","0","483","727273","0-0","","","","","","","","",""
"-1","-1","single-stim","0","484","728855","0-0","","<div class = centerbox><p class = ANT_text>+</p></div>","fixation","","","","","",""
"-1","-1","single-stim","0","485","729857","0-0","","<div class = centerbox><p class = ANT_text>*</p></div>","fixation","","","","","",""
"-1","-1","single-stim","0","486","730857","0-0","","<div class = centerbox><p class = ANT_text>+</p></div>","fixation","","","","","",""
"999","-1","stim-feedback","0","487","732854","0-0","","<div class = centerbox><p class = ANT_text>+</p></div><div class = ANT_down><p class = ANT_text> &rarr; &rarr; &larr; &rarr; &rarr; </p></div></div>","ANT_trial","NAN","37","left","incongruent","down","center"
"-1","-1","single-stim","0","488","736855","0-0","","<div class = centerbox><p class = ANT_text>+</p></div>","fixation","","","","","",""
"-1","-1","single-stim","0","489","737855","0-0","","<div class = centerbox><p class = ANT_text>+</p></div>","fixation","","","","","",""
"-1","-1","single-stim","0","490","738856","0-0","","<div class = centerbox><p class = ANT_text>+</p></div>","fixation","","","","","",""
"-1","-1","single-stim","0","491","739853","0-0","","<div class = centerbox><p class = ANT_text>+</p></div>","fixation","","","","","",""
"999","-1","stim-feedback","0","492","741856","0-0","","<div class = centerbox><p class = ANT_text>+</p></div><div class = ANT_up><p class = ANT_text> &rarr; &rarr; &rarr; &rarr; &rarr; </p></div></div>","ANT_trial","NAN","39","right","congruent","up","nocue"
"-1","-1","single-stim","0","493","746854","0-0","","<div class = centerbox><p class = ANT_text>+</p></div>","fixation","","","","","",""
"-1","-1","single-stim","0","494","748855","0-0","","<div class = centerbox><p class = ANT_text>+</p></div>","fixation","","","","","",""
"-1","-1","single-stim","0","495","749858","0-0","","<div class = centerbox><div class = ANT_up><p class = ANT_text>*</p></div></div>","fixation","","","","","",""
"-1","-1","single-stim","0","496","750853","0-0","","<div class = centerbox><p class = ANT_text>+</p></div>","fixation","","","","","",""
"999","-1","stim-feedback","0","497","752856","0-0","","<div class = centerbox><p class = ANT_text>+</p></div><div class = ANT_up><p class = ANT_text> &mdash; &mdash; &rarr; &mdash; &mdash; </p></div></div>","ANT_trial","NAN","39","right","neutral","up","spatial"
"-1","-1","single-stim","0","498","755857","0-0","","<div class = centerbox><p class = ANT_text>+</p></div>","fixation","","","","","",""
"-1","-1","single-stim","0","499","757855","0-0","","<div class = centerbox><p class = ANT_text>+</p></div>","fixation","","","","","",""
"-1","-1","single-stim","0","500","758855","0-0","","<div class = centerbox><div class = ANT_down><p class = ANT_text>*</p></div></div>","fixation","","","","","",""
"-1","-1","single-stim","0","501","759857","0-0","","<div class = centerbox><p class = ANT_text>+</p></div>","fixation","","","","","",""
"999","-1","stim-feedback","0","502","761857","0-0","","<div class = centerbox><p class = ANT_text>+</p></div><div class = ANT_down><p class = ANT_text> &rarr; &rarr; &rarr; &rarr; &rarr; </p></div></div>","ANT_trial","NAN","39","right","congruent","down","spatial"
"-1","-1","single-stim","0","503","765857","0-0","","<div class = centerbox><p class = ANT_text>+</p></div>","fixation","","","","","",""
"-1","-1","single-stim","0","504","767856","0-0","","<div class = centerbox><p class = ANT_text>+</p></div>","fixation","","","","","",""
"-1","-1","single-stim","0","505","768853","0-0","","<div class = centerbox><div class = ANT_up><p class = ANT_text>*</p></div></div>","fixation","","","","","",""
"-1","-1","single-stim","0","506","769854","0-0","","<div class = centerbox><p class = ANT_text>+</p></div>","fixation","","","","","",""
"999","-1","stim-feedback","0","507","771856","0-0","","<div class = centerbox><p class = ANT_text>+</p></div><div class = ANT_up><p class = ANT_text> &mdash; &mdash; &larr; &mdash; &mdash;</p></div></div>","ANT_trial","NAN","37","left","neutral","up","spatial"
"-1","-1","single-stim","0","508","775854","0-0","","<div class = centerbox><p class = ANT_text>+</p></div>","fixation","","","","","",""
"-1","-1","single-stim","0","509","776854","0-0","","<div class = centerbox><p class = ANT_text>+</p></div>","fixation","","","","","",""
"-1","-1","single-stim","0","510","777857","0-0","","<div class = centerbox><p class = ANT_text>+</p></div><div class = ANT_down><p class = ANT_text>*</p></div><div class = ANT_up><p class = ANT_text>*</p></div></div>","fixation","","","","","",""
"-1","-1","single-stim","0","511","778856","0-0","","<div class = centerbox><p class = ANT_text>+</p></div>","fixation","","","","","",""
"999","-1","stim-feedback","0","512","780853","0-0","","<div class = centerbox><p class = ANT_text>+</p></div><div class = ANT_up><p class = ANT_text> &larr; &larr; &larr; &larr; &larr; </p></div></div>","ANT_trial","NAN","37","left","congruent","up","double"
"-1","-1","single-stim","0","513","783852","0-0","","<div class = centerbox><p class = ANT_text>+</p></div>","fixation","","","","","",""
"-1","-1","single-stim","0","514","784857","0-0","","<div class = centerbox><p class = ANT_text>+</p></div>","fixation","","","","","",""
"-1","-1","single-stim","0","515","785855","0-0","","<div class = centerbox><div class = ANT_down><p class = ANT_text>*</p></div></div>","fixation","","","","","",""
"-1","-1","single-stim","0","516","786855","0-0","","<div class = centerbox><p class = ANT_text>+</p></div>","fixation","","","","","",""
"999","-1","stim-feedback","0","517","788854","0-0","","<div class = centerbox><p class = ANT_text>+</p></div><div class = ANT_down><p class = ANT_text> &larr; &larr; &rarr; &larr; &larr; </p></div></div>","ANT_trial","NAN","39","right","incongruent","down","spatial"
"-1","-1","single-stim","0","518","791857","0-0","","<div class = centerbox><p class = ANT_text>+</p></div>","fixation","","","","","",""
"-1","-1","single-stim","0","519","793854","0-0","","<div class = centerbox><p class = ANT_text>+</p></div>","fixation","","","","","",""
"-1","-1","single-stim","0","520","794855","0-0","","<div class = centerbox><p class = ANT_text>*</p></div>","fixation","","","","","",""
"-1","-1","single-stim","0","521","795856","0-0","","<div class = centerbox><p class = ANT_text>+</p></div>","fixation","","","","","",""
"999","-1","stim-feedback","0","522","797856","0-0","","<div class = centerbox><p class = ANT_text>+</p></div><div class = ANT_down><p class = ANT_text> &larr; &larr; &larr; &larr; &larr; </p></div></div>","ANT_trial","NAN","37","left","congruent","down","center"
"-1","-1","single-stim","0","523","801855","0-0","","<div class = centerbox><p class = ANT_text>+</p></div>","fixation","","","","","",""
"-1","-1","single-stim","0","524","802855","0-0","","<div class = centerbox><p class = ANT_text>+</p></div>","fixation","","","","","",""
"-1","-1","single-stim","0","525","803854","0-0","","<div class = centerbox><p class = ANT_text>*</p></div>","fixation","","","","","",""
"-1","-1","single-stim","0","526","804856","0-0","","<div class = centerbox><p class = ANT_text>+</p></div>","fixation","","","","","",""
"999","-1","stim-feedback","0","527","806855","0-0","","<div class = centerbox><p class = ANT_text>+</p></div><div class = ANT_up><p class = ANT_text> &rarr; &rarr; &rarr; &rarr; &rarr; </p></div></div>","ANT_trial","NAN","39","right","congruent","up","center"
"-1","-1","single-stim","0","528","810855","0-0","","<div class = centerbox><p class = ANT_text>+</p></div>","fixation","","","","","",""
"-1","-1","single-stim","0","529","812854","0-0","","<div class = centerbox><p class = ANT_text>+</p></div>","fixation","","","","","",""
"-1","-1","single-stim","0","530","813853","0-0","","<div class = centerbox><p class = ANT_text>+</p></div><div class = ANT_down><p class = ANT_text>*</p></div><div class = ANT_up><p class = ANT_text>*</p></div></div>","fixation","","","","","",""
"-1","-1","single-stim","0","531","814853","0-0","","<div class = centerbox><p class = ANT_text>+</p></div>","fixation","","","","","",""
"999","-1","stim-feedback","0","532","816855","0-0","","<div class = centerbox><p class = ANT_text>+</p></div><div class = ANT_down><p class = ANT_text> &mdash; &mdash; &larr; &mdash; &mdash;</p></div></div>","ANT_trial","NAN","37","left","neutral","down","double"
"-1","-1","single-stim","0","533","820854","0-0","","<div class = centerbox><p class = ANT_text>+</p></div>","fixation","","","","","",""
"-1","-1","single-stim","0","534","822855","0-0","","<div class = centerbox><p class = ANT_text>+</p></div>","fixation","","","","","",""
"-1","-1","single-stim","0","535","823853","0-0","","<div class = centerbox><p class = ANT_text>+</p></div><div class = ANT_down><p class = ANT_text>*</p></div><div class = ANT_up><p class = ANT_text>*</p></div></div>","fixation","","","","","",""
"-1","-1","single-stim","0","536","824854","0-0","","<div class = centerbox><p class = ANT_text>+</p></div>","fixation","","","","","",""
"999","-1","stim-feedback","0","537","826853","0-0","","<div class = centerbox><p class = ANT_text>+</p></div><div class = ANT_down><p class = ANT_text> &larr; &larr; &rarr; &larr; &larr; </p></div></div>","ANT_trial","NAN","39","right","incongruent","down","double"
"-1","-1","single-stim","0","538","829853","0-0","","<div class = centerbox><p class = ANT_text>+</p></div>","fixation","","","","","",""
"-1","-1","single-stim","0","539","830857","0-0","","<div class = centerbox><p class = ANT_text>+</p></div>","fixation","","","","","",""
"-1","-1","single-stim","0","540","831852","0-0","","<div class = centerbox><div class = ANT_up><p class = ANT_text>*</p></div></div>","fixation","","","","","",""
"-1","-1","single-stim","0","541","832851","0-0","","<div class = centerbox><p class = ANT_text>+</p></div>","fixation","","","","","",""
"999","-1","stim-feedback","0","542","834857","0-0","","<div class = centerbox><p class = ANT_text>+</p></div><div class = ANT_up><p class = ANT_text> &larr; &larr; &rarr; &larr; &larr; </p></div></div>","ANT_trial","NAN","39","right","incongruent","up","spatial"
"-1","-1","single-stim","0","543","838856","0-0","","<div class = centerbox><p class = ANT_text>+</p></div>","fixation","","","","","",""
"-1","-1","single-stim","0","544","840853","0-0","","<div class = centerbox><p class = ANT_text>+</p></div>","fixation","","","","","",""
"-1","-1","single-stim","0","545","841853","0-0","","<div class = centerbox><p class = ANT_text>*</p></div>","fixation","","","","","",""
"-1","-1","single-stim","0","546","842853","0-0","","<div class = centerbox><p class = ANT_text>+</p></div>","fixation","","","","","",""
"999","-1","stim-feedback","0","547","844856","0-0","","<div class = centerbox><p class = ANT_text>+</p></div><div class = ANT_up><p class = ANT_text> &larr; &larr; &rarr; &larr; &larr; </p></div></div>","ANT_trial","NAN","39","right","incongruent","up","center"
"-1","-1","single-stim","0","548","848852","0-0","","<div class = centerbox><p class = ANT_text>+</p></div>","fixation","","","","","",""
"-1","-1","single-stim","0","549","850854","0-0","","<div class = centerbox><p class = ANT_text>+</p></div>","fixation","","","","","",""
"-1","-1","single-stim","0","550","851855","0-0","","<div class = centerbox><p class = ANT_text>*</p></div>","fixation","","","","","",""
"-1","-1","single-stim","0","551","852852","0-0","","<div class = centerbox><p class = ANT_text>+</p></div>","fixation","","","","","",""
"999","-1","stim-feedback","0","552","854853","0-0","","<div class = centerbox><p class = ANT_text>+</p></div><div class = ANT_up><p class = ANT_text> &mdash; &mdash; &rarr; &mdash; &mdash; </p></div></div>","ANT_trial","NAN","39","right","neutral","up","center"
"-1","-1","single-stim","0","553","857853","0-0","","<div class = centerbox><p class = ANT_text>+</p></div>","fixation","","","","","",""
"-1","-1","single-stim","0","554","858856","0-0","","<div class = centerbox><p class = ANT_text>+</p></div>","fixation","","","","","",""
"-1","-1","single-stim","0","555","859856","0-0","","<div class = centerbox><div class = ANT_down><p class = ANT_text>*</p></div></div>","fixation","","","","","",""
"-1","-1","single-stim","0","556","860855","0-0","","<div class = centerbox><p class = ANT_text>+</p></div>","fixation","","","","","",""
"999","-1","stim-feedback","0","557","862855","0-0","","<div class = centerbox><p class = ANT_text>+</p></div><div class = ANT_down><p class = ANT_text> &rarr; &rarr; &larr; &rarr; &rarr; </p></div></div>","ANT_trial","NAN","37","left","incongruent","down","spatial"
"-1","-1","single-stim","0","558","866853","0-0","","<div class = centerbox><p class = ANT_text>+</p></div>","fixation","","","","","",""
"-1","-1","single-stim","0","559","868856","0-0","","<div class = centerbox><p class = ANT_text>+</p></div>","fixation","","","","","",""
"-1","-1","single-stim","0","560","869854","0-0","","<div class = centerbox><p class = ANT_text>+</p></div><div class = ANT_down><p class = ANT_text>*</p></div><div class = ANT_up><p class = ANT_text>*</p></div></div>","fixation","","","","","",""
"-1","-1","single-stim","0","561","870853","0-0","","<div class = centerbox><p class = ANT_text>+</p></div>","fixation","","","","","",""
"999","-1","stim-feedback","0","562","872854","0-0","","<div class = centerbox><p class = ANT_text>+</p></div><div class = ANT_down><p class = ANT_text> &mdash; &mdash; &rarr; &mdash; &mdash; </p></div></div>","ANT_trial","NAN","39","right","neutral","down","double"
"-1","-1","single-stim","0","563","876855","0-0","","<div class = centerbox><p class = ANT_text>+</p></div>","fixation","","","","","",""
"-1","-1","single-stim","0","564","878852","0-0","","<div class = centerbox><p class = ANT_text>+</p></div>","fixation","","","","","",""
"-1","-1","single-stim","0","565","879855","0-0","","<div class = centerbox><p class = ANT_text>+</p></div><div class = ANT_down><p class = ANT_text>*</p></div><div class = ANT_up><p class = ANT_text>*</p></div></div>","fixation","","","","","",""
"-1","-1","single-stim","0","566","880855","0-0","","<div class = centerbox><p class = ANT_text>+</p></div>","fixation","","","","","",""
"999","-1","stim-feedback","0","567","882855","0-0","","<div class = centerbox><p class = ANT_text>+</p></div><div class = ANT_up><p class = ANT_text> &mdash; &mdash; &larr; &mdash; &mdash;</p></div></div>","ANT_trial","NAN","37","left","neutral","up","double"
"-1","-1","single-stim","0","568","886852","0-0","","<div class = centerbox><p class = ANT_text>+</p></div>","fixation","","","","","",""
"-1","-1","single-stim","0","569","888854","0-0","","<div class = centerbox><p class = ANT_text>+</p></div>","fixation","","","","","",""
"-1","-1","single-stim","0","570","889877","0-0","","<div class = centerbox><p class = ANT_text>*</p></div>","fixation","","","","","",""
"-1","-1","single-stim","0","571","890853","0-0","","<div class = centerbox><p class = ANT_text>+</p></div>","fixation","","","","","",""
"999","-1","stim-feedback","0","572","892853","0-0","","<div class = centerbox><p class = ANT_text>+</p></div><div class = ANT_down><p class = ANT_text> &rarr; &rarr; &rarr; &rarr; &rarr; </p></div></div>","ANT_trial","NAN","39","right","congruent","down","center"
"-1","-1","single-stim","0","573","895852","0-0","","<div class = centerbox><p class = ANT_text>+</p></div>","fixation","","","","","",""
"-1","-1","single-stim","0","574","897851","0-0","","<div class = centerbox><p class = ANT_text>+</p></div>","fixation","","","","","",""
"-1","-1","single-stim","0","575","898854","0-0","","<div class = centerbox><p class = ANT_text>*</p></div>","fixation","","","","","",""
"-1","-1","single-stim","0","576","899853","0-0","","<div class = centerbox><p class = ANT_text>+</p></div>","fixation","","","","","",""
"999","-1","stim-feedback","0","577","901856","0-0","","<div class = centerbox><p class = ANT_text>+</p></div><div class = ANT_down><p class = ANT_text> &larr; &larr; &rarr; &larr; &larr; </p></div></div>","ANT_trial","NAN","39","right","incongruent","down","center"
"-1","-1","single-stim","0","578","905852","0-0","","<div class = centerbox><p class = ANT_text>+</p></div>","fixation","","","","","",""
"-1","-1","single-stim","0","579","907853","0-0","","<div class = centerbox><p class = ANT_text>+</p></div>","fixation","","","","","",""
"-1","-1","single-stim","0","580","908856","0-0","","<div class = centerbox><p class = ANT_text>+</p></div><div class = ANT_down><p class = ANT_text>*</p></div><div class = ANT_up><p class = ANT_text>*</p></div></div>","fixation","","","","","",""
"-1","-1","single-stim","0","581","909852","0-0","","<div class = centerbox><p class = ANT_text>+</p></div>","fixation","","","","","",""
"999","-1","stim-feedback","0","582","911853","0-0","","<div class = centerbox><p class = ANT_text>+</p></div><div class = ANT_down><p class = ANT_text> &rarr; &rarr; &larr; &rarr; &rarr; </p></div></div>","ANT_trial","NAN","37","left","incongruent","down","double"
"-1","-1","single-stim","0","583","914853","0-0","","<div class = centerbox><p class = ANT_text>+</p></div>","fixation","","","","","",""
"-1","-1","single-stim","0","584","915857","0-0","","<div class = centerbox><p class = ANT_text>+</p></div>","fixation","","","","","",""
